time,ax,ay,az,aT
1.8420,0.0842,0.1210,-0.0404,0.153
1.8510,-0.1625,0.2395,-0.0978,0.306
1.8590,-0.2583,0.2160,-0.1338,0.362
1.8690,-0.2110,0.1180,-0.0510,0.247
1.8790,-0.1009,0.0357,0.1107,0.154
1.8880,0.2354,0.0318,0.3570,0.429
1.9000,0.4834,0.0374,0.5462,0.730
1.9110,0.6125,0.0043,0.6708,0.908
1.9190,0.5384,-0.0634,0.5688,0.786
1.9300,0.2655,-0.1113,0.3171,0.428
1.9390,-0.0198,-0.0769,0.1371,0.158
1.9490,-0.2306,0.0279,-0.0794,0.246
1.9630,-0.3175,0.1212,-0.2088,0.399
1.9690,-0.2595,0.1581,-0.3223,0.443
1.9810,-0.2081,0.0651,-0.2682,0.346
1.9890,-0.1425,0.0069,-0.1792,0.229
2.0010,0.0089,0.0018,0.0364,0.037
2.0100,0.1081,0.0024,0.2821,0.302
2.0230,0.1278,0.0441,0.4459,0.466
2.0290,0.1189,0.0854,0.4973,0.518
2.0400,0.0052,0.0748,0.3772,0.385
2.0480,-0.1048,0.0535,0.1866,0.221
2.0620,-0.2265,0.0352,0.1054,0.252
2.0680,-0.2581,0.0708,0.1719,0.318
2.0810,-0.1063,0.1343,0.1512,0.228
2.0890,0.1852,0.1553,-0.0429,0.245
2.1010,0.3336,0.0290,-0.2703,0.430
2.1140,0.1837,-0.0541,-0.2980,0.354
2.1200,0.0181,-0.0612,-0.3668,0.372
2.1340,-0.0412,0.0222,-0.3495,0.353
2.1400,-0.0302,0.1119,-0.0483,0.126
2.1520,-0.0244,0.1599,0.3839,0.417
2.1610,-0.0038,0.1241,0.5471,0.561
2.1710,0.0001,0.0507,0.6017,0.604
2.1800,0.0930,-0.0520,0.5359,0.546
2.1910,0.2595,-0.0963,0.3969,0.484
2.2000,0.3770,-0.1079,0.1335,0.414
2.2170,0.3509,-0.0833,-0.0359,0.362
2.2250,0.2083,-0.0403,-0.0601,0.221
2.2290,0.1373,0.0335,-0.1290,0.191
2.2430,0.0949,0.0916,-0.1940,0.235
2.2510,0.1319,0.1037,-0.1296,0.212
2.2620,0.0736,0.0686,-0.0695,0.122
2.2700,0.0698,0.0913,0.0596,0.129
2.2820,0.0261,0.1228,0.1775,0.217
2.2910,-0.1351,0.0987,0.3220,0.363
2.3020,-0.2918,0.1109,0.4267,0.529
2.3120,-0.3109,0.1831,0.2763,0.455
2.3220,-0.3236,0.1816,0.0195,0.372
2.3300,-0.3442,0.2215,-0.2353,0.472
2.3450,-0.2948,0.1962,-0.4377,0.563
2.3500,-0.2979,0.1184,-0.6018,0.682
2.3620,-0.2808,0.0556,-0.7464,0.799
2.3720,-0.1941,0.0564,-0.7795,0.805
2.3810,-0.0795,0.0716,-0.5066,0.518
2.3900,-0.0272,0.0430,-0.0658,0.083
2.4020,-0.0233,0.0937,0.4137,0.425
2.4080,0.0864,0.1926,0.7197,0.750
2.4210,0.1564,0.1756,0.7351,0.772
2.4300,0.1793,0.1374,0.5444,0.589
2.4410,0.0980,0.0843,0.2247,0.259
2.4500,-0.0568,0.0859,-0.2793,0.298
2.4620,-0.6567,-0.1648,-1.8817,2.000
2.4690,-0.3107,0.2730,-1.3547,1.416
2.4810,-0.4452,0.3877,-0.7496,0.954
2.4900,-0.6236,0.1864,-0.5340,0.842
2.5020,-0.6625,-0.0235,-0.5826,0.882
2.5090,-0.4689,-0.0730,-0.5023,0.691
2.5230,-0.2526,0.0282,-0.1643,0.303
2.5330,-0.2394,0.0494,0.2061,0.320
2.5410,-0.2289,-0.0085,0.6235,0.664
2.5510,-0.0176,-0.0141,0.6722,0.673
2.5600,0.1370,0.1407,0.4061,0.451
2.5710,-0.1257,0.3089,0.2388,0.410
2.5810,-0.6931,0.4252,0.4587,0.934
2.5890,-0.8387,0.4451,0.5045,1.075
2.6040,-0.9630,0.4217,0.3242,1.100
2.6090,-0.8988,0.4173,-0.1767,1.007
2.6200,-0.7472,0.3443,-0.0700,0.826
2.6300,-1.0112,0.6565,0.3756,1.263
2.6390,-0.8649,0.4617,0.6117,1.156
2.6490,-0.8890,0.4543,0.6111,1.171
2.6620,0.1768,-0.2327,-0.5336,0.608
2.6700,0.7379,-0.3352,-1.0761,1.347
2.6820,1.1228,-0.5417,-1.6060,2.033
2.6910,1.3643,-0.7485,-1.7835,2.367
2.7010,1.5411,-0.8097,-1.2893,2.166
2.7080,1.5245,-0.7749,-0.6946,1.846
2.7200,1.3281,-0.6797,0.0621,1.493
2.7300,1.0041,-0.5714,0.6950,1.348
2.7390,0.6101,-0.4708,1.1262,1.365
2.7490,0.4257,-0.3587,1.4059,1.512
2.7590,0.3908,-0.3264,1.3660,1.458
2.7690,0.5057,-0.3082,1.0632,1.217
2.7840,0.7455,-0.2990,0.4012,0.898
2.7920,0.7456,-0.2520,-0.2091,0.814
2.8020,0.5982,-0.1372,-0.6506,0.894
2.8080,0.2859,-0.0045,-0.8387,0.886
2.8190,-0.0485,0.1202,-0.8158,0.826
2.8320,-0.3555,0.1838,-0.6333,0.749
2.8490,-0.5853,0.1939,-0.4701,0.775
2.8520,-0.7668,0.1402,-0.1958,0.804
2.8590,-0.7730,0.1409,0.0991,0.792
2.8680,-0.6049,0.1050,0.4296,0.749
2.8810,-0.4178,0.0517,0.6096,0.741
2.8880,-0.2232,-0.0354,0.7372,0.771
2.9000,-0.0427,-0.0694,0.7605,0.765
2.9080,0.1799,-0.0267,0.6863,0.710
2.9200,0.2703,-0.0162,0.4464,0.522
2.9300,0.2009,-0.0741,0.1723,0.275
2.9390,0.0675,-0.1132,-0.0864,0.158
2.9490,-0.1012,-0.1023,-0.2443,0.283
2.9590,-0.1962,-0.0518,-0.3127,0.373
2.9690,-0.1458,0.0298,-0.3612,0.391
2.9800,-0.0249,0.0437,-0.3053,0.309
2.9880,0.0410,-0.0205,-0.1257,0.134
3.0030,0.1146,-0.0504,0.0553,0.137
3.0090,0.1600,-0.0782,0.1266,0.219
3.0210,0.1755,-0.0970,0.1490,0.250
3.0300,0.1230,-0.1349,0.0868,0.202
3.0400,0.0692,-0.0769,0.0040,0.104
3.0480,0.1100,0.0311,-0.1256,0.170
3.0590,0.0387,0.0597,-0.1594,0.175
3.0690,-0.0871,-0.0008,-0.1691,0.190
3.0800,-0.1721,-0.0620,-0.1721,0.251
3.0900,-0.1828,-0.1050,-0.2065,0.295
3.1030,-0.0948,-0.1082,-0.1396,0.200
3.1080,0.0107,-0.0923,0.0296,0.097
3.1210,0.1346,-0.1002,0.0355,0.172
3.1290,0.1899,-0.0976,0.0903,0.232
3.1390,0.2094,-0.0829,0.1055,0.249
3.1500,0.1223,-0.1174,0.0596,0.180
3.1590,0.0165,-0.1360,-0.0566,0.148
3.1690,0.0054,-0.1010,-0.1292,0.164
3.1800,0.1271,-0.0305,-0.1259,0.181
3.1890,0.2119,-0.0513,-0.0985,0.239
3.2040,0.2587,-0.1209,-0.0018,0.286
3.2120,0.2894,-0.1222,0.0758,0.323
3.2210,0.2764,-0.0260,0.1741,0.328
3.2320,0.2184,0.0279,0.2309,0.319
3.2400,0.0661,0.0252,0.2312,0.242
3.2490,0.0006,-0.0007,0.1396,0.140
3.2600,-0.0630,0.0262,-0.0266,0.073
3.2700,-0.0106,0.0446,-0.2337,0.238
3.2810,-0.0777,0.1156,-0.2066,0.249
3.2910,-0.2559,0.1494,-0.0700,0.304
3.3020,-0.4163,0.1328,0.0259,0.438
3.3110,-0.4576,0.0898,0.0045,0.466
3.3210,-0.4269,0.0096,-0.1233,0.444
3.3400,-0.2898,-0.0586,-0.3935,0.492
3.3420,-0.0336,-0.0908,-0.5895,0.597
3.3500,0.1034,-0.0744,-0.4555,0.473
3.3610,0.1207,-0.0933,-0.2689,0.309
3.3700,0.1083,-0.0749,-0.1951,0.235
3.3810,-0.0023,-0.0709,-0.1074,0.129
3.3900,-0.1805,-0.0386,0.2223,0.289
3.4000,-0.1424,-0.0528,0.2663,0.307
3.4090,0.1244,-0.0361,0.0276,0.132
3.4220,0.3682,-0.0590,-0.2334,0.440
3.4290,0.4800,-0.1729,-0.4120,0.656
3.4420,0.3363,-0.1811,-0.3199,0.498
3.4510,0.0822,-0.1191,-0.1676,0.221
3.4590,-0.1259,-0.0592,0.0351,0.144
3.4710,-0.2541,-0.0022,0.3423,0.426
3.4810,-0.2159,0.0133,0.4193,0.472
3.4900,-0.0384,0.0559,0.2727,0.281
3.5010,0.0789,0.0230,0.0062,0.082
3.5100,0.1318,-0.0175,-0.0724,0.151
3.5200,0.1125,-0.0383,-0.0992,0.155
3.5300,-0.0129,-0.0278,-0.0505,0.059
3.5400,-0.1194,-0.0032,-0.0618,0.134
3.5510,-0.1949,0.0173,-0.1355,0.238
3.5610,-0.1802,0.0213,-0.1711,0.249
3.5710,-0.0878,0.0523,-0.1015,0.144
3.5820,-0.0258,0.0574,0.0755,0.098
3.5900,0.0460,0.0569,0.0932,0.118
3.6000,0.0910,0.0252,-0.0555,0.110
3.6100,0.0366,-0.0351,-0.1249,0.135
3.6200,-0.0077,-0.0349,-0.0144,0.039
3.6360,-0.0600,0.0272,0.0779,0.102
3.6430,-0.0515,0.0411,0.0623,0.091
3.6540,0.0547,0.0707,-0.0360,0.096
3.6600,0.1338,0.0544,-0.1534,0.211
3.6690,0.0430,0.0057,-0.1879,0.193
3.6850,-0.0114,-0.0521,-0.2347,0.241
3.6890,0.0083,-0.0437,-0.3093,0.313
3.7010,0.0638,-0.0131,-0.2266,0.236
3.7090,0.0565,-0.0315,-0.1411,0.155
3.7200,0.0599,-0.1083,0.0441,0.131
3.7330,-0.0011,-0.1245,0.2191,0.252
3.7410,-0.0793,-0.0364,0.4659,0.474
3.7500,-0.0494,0.0378,0.5240,0.528
3.7600,0.0825,0.0349,0.1569,0.181
3.7700,0.0790,-0.0149,-0.2372,0.250
3.7840,0.0248,-0.0236,-0.4441,0.445
3.7890,-0.1297,0.0167,-0.3638,0.387
3.8010,-0.3543,0.0962,-0.2287,0.432
3.8100,-0.4227,0.1414,-0.1924,0.485
3.8210,-0.2406,0.1286,-0.1569,0.315
3.8320,0.0367,0.0631,-0.1940,0.207
3.8570,0.2180,0.0069,-0.1740,0.279
3.8590,0.2067,-0.0062,-0.1470,0.254
3.8610,0.0568,0.0171,-0.0089,0.060
3.8690,-0.1613,0.0025,0.1316,0.208
3.8800,-0.2220,-0.0266,0.0677,0.234
3.8900,-0.1146,-0.0667,-0.0926,0.162
3.9010,0.0169,-0.0801,-0.1706,0.189
3.9090,-0.0672,-0.0748,-0.1248,0.160
3.9200,-0.1530,-0.0886,-0.1351,0.222
3.9300,-0.0788,0.0188,-0.1765,0.194
3.9410,0.1390,0.0914,-0.2682,0.316
3.9500,0.4440,0.0453,-0.4345,0.623
3.9600,0.5708,-0.1159,-0.4699,0.748
3.9690,0.4696,-0.1942,-0.3003,0.590
3.9850,0.2789,-0.1499,-0.0051,0.317
3.9900,-0.0754,-0.0239,0.2855,0.296
4.0010,-0.2460,0.1106,0.3559,0.447
4.0090,0.0657,0.1475,0.1723,0.236
4.0210,0.0612,0.1475,0.1720,0.235
4.0290,0.4190,-0.2728,-0.2604,0.564
4.0410,0.3791,-0.2837,-0.3284,0.576
4.0520,0.2211,-0.1592,-0.2592,0.376
4.0610,-0.0056,-0.0294,-0.1583,0.161
4.0700,-0.2841,0.0578,-0.0568,0.295
4.0810,-0.2919,0.0950,0.0359,0.309
4.0890,-0.1172,0.0919,0.1165,0.189
4.1020,0.0060,0.0186,0.0452,0.049
4.1110,0.0665,-0.0669,-0.1118,0.146
4.1210,0.1375,-0.0471,-0.2516,0.291
4.1290,0.1434,-0.0067,-0.4258,0.449
4.1420,-0.0042,-0.0354,-0.4345,0.436
4.1490,-0.0634,-0.0016,-0.3035,0.310
4.1600,0.0168,0.0175,-0.1491,0.151
4.1690,0.0959,0.0057,0.0384,0.103
4.1820,0.0785,-0.0178,0.0856,0.117
4.1890,0.0526,-0.0238,-0.0013,0.058
4.2010,0.0341,0.0073,-0.0375,0.051
4.2090,0.0195,0.0075,-0.0194,0.029
4.2250,0.0370,-0.0200,0.0024,0.042
4.2300,0.0263,0.0001,0.0160,0.031
4.2410,-0.0638,-0.0388,0.1267,0.147
4.2520,-0.1574,-0.0648,0.3165,0.359
4.2600,-0.0793,-0.0412,0.4742,0.483
4.2680,0.2157,0.0313,0.2406,0.325
4.2820,0.3924,0.0232,-0.3599,0.533
4.2880,0.3638,-0.0135,-1.9400,1.974
4.3000,0.0456,0.2262,-2.7836,2.793
4.3080,-0.3124,-0.1789,-0.6538,0.746
4.3200,-0.7860,-0.3864,0.5951,1.059
4.3280,-1.3177,-0.1817,1.2427,1.820
4.3410,-1.3276,0.1125,1.8399,2.272
4.3520,-0.1806,0.4608,1.6661,1.738
4.3600,0.9683,0.5173,0.6363,1.269
4.3700,0.7624,0.2293,-0.7498,1.094
4.3850,0.0713,-0.0890,-2.1618,2.165
4.3900,0.4623,-0.1745,-1.9856,2.046
4.4010,0.4593,-0.2427,-1.0028,1.129
4.4100,0.1945,-0.1960,-0.0484,0.280
4.4200,-0.0582,-0.0117,0.8208,0.823
4.4300,-0.2090,0.1613,1.1704,1.200
4.4400,-0.2707,0.1760,0.8967,0.953
4.4570,-0.1854,0.0498,0.4563,0.495
4.4820,0.0538,-0.0923,0.0702,0.128
4.4820,0.2607,-0.1054,-0.1457,0.317
4.4830,0.2976,-0.0652,-0.3508,0.465
4.4890,0.2044,-0.0177,-0.5690,0.605
4.5020,0.0300,-0.0386,-0.7464,0.748
4.5080,-0.0427,-0.0231,-0.6345,0.636
4.5190,-0.0653,-0.0204,-0.4077,0.413
4.5280,-0.0554,-0.0119,-0.0383,0.068
4.5410,-0.0289,-0.0094,0.2002,0.203
4.5490,-0.0462,-0.0459,0.2658,0.274
4.5600,-0.0866,-0.0985,0.2122,0.249
4.5690,-0.1220,-0.1171,0.1372,0.218
4.5850,-0.0521,-0.0811,-0.0942,0.135
4.5880,0.0445,-0.0323,-0.4006,0.404
4.6060,0.0712,-0.0247,-0.5019,0.508
4.6110,0.0028,-0.0600,-0.4124,0.417
4.6230,-0.0744,-0.1030,-0.2427,0.274
4.6340,-0.0750,-0.0870,-0.0838,0.142
4.6420,0.0034,-0.0115,0.0288,0.031
4.6690,0.0920,0.1027,-0.0086,0.138
4.6700,0.0747,0.1010,0.0018,0.126
4.6710,0.0377,0.0156,0.0542,0.068
4.6810,0.0644,-0.0432,0.0720,0.106
4.6890,0.1062,-0.0614,0.0182,0.124
4.7110,0.0758,-0.0427,-0.0735,0.114
4.7140,0.0615,0.0164,-0.1971,0.207
4.7280,0.0578,0.0132,-0.2246,0.232
4.7320,0.0278,-0.0395,-0.1347,0.143
4.7400,-0.0052,-0.0760,-0.1109,0.135
4.7610,0.0039,-0.0831,-0.1185,0.145
4.7670,0.0468,-0.0604,-0.1442,0.163
4.7710,0.0983,-0.0111,-0.1449,0.175
4.7830,0.1049,-0.0053,-0.0955,0.142
4.8080,0.0329,-0.0542,-0.0405,0.075
4.8190,-0.0466,-0.0854,-0.0371,0.104
4.8250,-0.0521,-0.0663,-0.0708,0.110
4.8280,-0.0282,-0.0650,-0.1245,0.143
4.8370,-0.0612,-0.0505,-0.1395,0.160
4.9090,-0.0364,0.0093,-0.1146,0.121
4.9100,-0.0345,0.0364,-0.0860,0.100
4.9100,-0.0932,0.0160,-0.0073,0.095
4.9100,-0.1117,0.0116,-0.0234,0.115
4.9110,-0.1034,0.0156,-0.1101,0.152
4.9110,-0.0980,0.0202,-0.1607,0.189
4.9120,-0.0661,0.0337,-0.1143,0.136
4.9120,-0.0540,0.0144,-0.1086,0.122
4.9190,-0.0084,0.0276,-0.0635,0.070
4.9280,-0.0016,0.0605,-0.1084,0.124
4.9430,-0.0703,0.0605,-0.1128,0.146
4.9870,-0.0646,0.0656,-0.0801,0.122
4.9880,-0.0363,0.0724,-0.0260,0.085
4.9880,-0.0155,0.0421,-0.0054,0.045
4.9890,-0.0511,-0.0354,0.0895,0.109
4.9890,-0.0520,-0.0337,0.0889,0.108
5.0030,0.0318,-0.0769,-0.0906,0.123
5.0210,0.1362,-0.0592,-0.2682,0.307
5.0230,0.1749,-0.0312,-0.3640,0.405
5.0320,0.0829,-0.0451,-0.3101,0.324
5.0540,-0.0889,-0.0787,-0.1431,0.186
5.0560,-0.1161,-0.0888,0.0159,0.147
5.0730,-0.0365,-0.0983,0.1058,0.149
5.0760,0.0457,-0.0912,0.0179,0.104
5.0880,0.1462,-0.1048,-0.1741,0.250
5.0920,0.2140,-0.1366,-0.2871,0.383
5.1030,0.2443,-0.1372,-0.2231,0.358
5.1180,0.2369,-0.0581,-0.0407,0.247
5.1340,0.1956,-0.0021,0.1283,0.234
5.1390,0.0926,0.0236,0.1946,0.217
5.1400,0.0687,0.0064,0.0424,0.081
5.1520,0.0270,-0.0256,-0.2092,0.212
5.1690,0.0425,-0.0263,-0.3486,0.352
5.1700,0.0323,0.0060,-0.3080,0.310
5.1870,-0.0172,0.0282,-0.2041,0.207
5.1900,-0.0703,0.0025,-0.0744,0.102
5.2030,-0.0835,0.0003,0.0593,0.102
5.2180,-0.0325,-0.0158,0.1563,0.160
5.2220,0.0183,-0.0238,0.1246,0.128
5.2400,0.0515,-0.0291,0.0379,0.070
5.2460,0.0215,-0.0155,-0.0316,0.041
5.2570,-0.0202,0.0040,-0.0710,0.074
5.2600,-0.0529,-0.0139,-0.0766,0.094
5.2710,-0.1231,-0.0115,-0.0810,0.148
5.2790,-0.0809,-0.0054,-0.0686,0.106
5.2890,-0.0285,-0.0090,-0.1101,0.114
5.3040,-0.0459,-0.0241,-0.1633,0.171
5.3090,0.0123,-0.0295,-0.1708,0.174
5.3220,0.0676,-0.0296,-0.1794,0.194
5.3290,0.0907,-0.0504,-0.2227,0.246
5.3470,0.0643,-0.0686,-0.3033,0.318
5.3530,0.0421,-0.0478,-0.4009,0.406
5.3730,-0.0020,-0.0680,-0.3969,0.403
5.3740,0.0648,-0.0806,-0.4210,0.434
5.3790,0.0208,-0.0950,-0.4115,0.423
5.3890,0.1040,-0.1191,-0.4948,0.519
5.4050,0.0282,-0.2178,-0.4911,0.538
5.4090,-0.0536,-0.2015,-0.3323,0.392
5.4230,-0.1132,-0.0765,0.0234,0.139
5.4290,-0.6949,0.1886,0.2425,0.760
5.4400,0.0351,0.4968,0.2226,0.546
5.4620,0.1509,0.3033,0.2863,0.443
5.4700,-0.3840,-0.1060,0.0914,0.409
5.4700,-0.5776,-0.2639,-0.0200,0.635
5.4800,-0.2010,-0.0473,0.0860,0.224
5.4890,0.2507,0.2015,0.0834,0.332
5.5050,0.4220,0.2129,0.0895,0.481
5.5080,0.2443,0.0267,0.0382,0.249
5.5200,0.0758,-0.1400,-0.0247,0.161
5.5280,0.1044,-0.1274,-0.1447,0.219
5.5420,0.1887,-0.0601,-0.1794,0.267
5.5540,0.1666,-0.0715,-0.1377,0.228
5.5600,0.0865,-0.1288,-0.1094,0.190
5.5720,0.0344,-0.1529,-0.1161,0.195
5.5820,0.0558,-0.1565,-0.0752,0.182
5.5890,0.0459,-0.1447,-0.1470,0.211
5.6040,0.0559,-0.1276,-0.2178,0.259
5.6090,0.0585,-0.1468,-0.2453,0.292
5.6190,0.0863,-0.1504,-0.2298,0.288
5.6280,0.1339,-0.1271,-0.2193,0.287
5.6400,0.5613,-0.1277,0.2711,0.636
5.6500,0.7885,-0.1815,0.7298,1.090
5.6600,0.5863,-0.2874,0.4542,0.795
5.6740,0.3095,-0.1866,-0.0934,0.373
5.6790,0.1030,-0.0735,-0.5325,0.547
5.6890,-0.0318,0.0335,-0.7358,0.737
5.7020,-0.3199,0.0378,-0.7551,0.821
5.7090,-0.3725,0.1028,-0.6473,0.754
5.7190,-0.1853,0.1936,-0.4605,0.533
5.7290,-0.2096,0.1251,-0.2773,0.369
5.7400,-0.2768,-0.0297,-0.0910,0.293
5.7690,-0.2079,-0.1317,0.1715,0.300
5.7750,-0.0221,-0.1100,0.2902,0.311
5.7840,0.0792,-0.0850,0.3097,0.331
5.7870,0.0660,-0.0531,0.3191,0.330
5.7900,-0.0678,0.0128,0.1136,0.133
5.8020,-0.1575,0.0990,-0.1033,0.213
5.8090,-0.4023,0.1992,-0.4490,0.635
5.8210,-0.3549,0.2428,-0.6366,0.768
5.8290,-0.2805,0.2308,-0.5142,0.630
5.8470,-0.1717,0.1507,-0.3527,0.420
5.8500,-0.1028,0.0471,-0.1667,0.201
5.8600,-0.0259,-0.0287,-0.0936,0.101
5.8700,0.0436,-0.1257,-0.1691,0.215
5.8810,0.1330,-0.1825,-0.1027,0.248
5.8890,0.2363,-0.1852,-0.0421,0.303
5.9020,0.3672,-0.1397,-0.0244,0.394
5.9080,0.4051,-0.1813,-0.0616,0.448
5.9230,0.3820,-0.2024,-0.0292,0.433
5.9300,0.3455,-0.1367,-0.1667,0.407
5.9430,0.0675,-0.1066,-0.5830,0.597
5.9500,-0.2689,-0.0400,-0.8800,0.921
5.9710,-0.3674,0.0445,-1.1631,1.221
5.9750,-0.4417,0.0790,-1.3112,1.386
5.9830,-0.1520,0.1165,-1.2149,1.230
5.9920,0.1479,0.0701,-0.8171,0.833
6.0020,0.2222,-0.0568,-0.1703,0.286
6.0090,0.1132,-0.1676,0.3353,0.392
6.0330,-0.0387,-0.2487,1.0233,1.054
6.0350,0.0634,-0.2327,1.8509,1.867
6.0400,0.3103,-0.1823,1.9189,1.952
6.0500,0.5501,-0.0594,1.5331,1.630
6.0620,0.4929,-0.1650,0.8036,0.957
6.0710,0.1881,-0.2785,0.3430,0.480
6.0810,-0.4001,-0.4521,-0.2530,0.655
6.0890,-0.3092,-0.3905,-0.7004,0.859
6.1000,0.2738,-0.3164,-1.0763,1.155
6.1090,0.5287,-0.3209,-1.0727,1.238
6.1200,0.6882,-0.1634,-0.1531,0.724
6.1290,0.4959,-0.1813,0.8099,0.967
6.1410,-0.0238,-0.2234,1.8177,1.832
6.1490,-0.1618,-0.2142,1.8638,1.883
6.1600,0.0756,-0.3169,1.0749,1.123
6.1720,0.4938,-0.3862,0.2508,0.675
6.1810,0.5845,-0.4351,0.0196,0.729
6.1900,0.4535,-0.3380,-0.0548,0.568
6.2010,0.1666,-0.0416,-0.4896,0.519
6.2110,0.4803,0.3012,-1.0060,1.155
6.2220,0.6544,0.3292,-1.1805,1.389
6.2350,0.0880,0.0205,-1.3851,1.388
6.2400,-0.3280,-0.1926,-1.0466,1.114
6.2500,-0.3614,-0.3730,-0.3704,0.638
6.2620,-0.2418,-0.5674,0.0087,0.617
6.2690,0.1080,-0.5029,0.2577,0.575
6.2810,0.2512,-0.2590,0.3202,0.482
6.2920,0.2498,0.0470,0.4143,0.486
6.3000,0.2730,0.2202,0.4552,0.575
6.3100,-0.1001,0.2391,0.2965,0.394
6.3290,-0.2475,0.1402,0.2007,0.348
6.3340,-0.0115,0.1027,0.0611,0.120
6.3420,0.4924,0.1795,-0.0746,0.529
6.3510,0.3739,0.0091,0.4407,0.578
6.3640,-0.1055,-0.1329,0.8745,0.891
6.3730,0.4209,0.4632,0.6541,0.905
6.3810,0.3873,0.3567,0.4734,0.708
6.3890,0.0086,0.1674,0.7535,0.772
6.4000,-0.0917,-0.3213,0.7805,0.849
6.4090,0.3273,-0.6585,0.0788,0.740
6.4210,0.8654,-0.7640,-0.4130,1.226
6.4290,1.1176,-0.7273,-0.7587,1.534
6.4450,0.9324,-0.5670,-0.7809,1.342
6.4490,0.6202,-0.3877,-0.4270,0.847
6.4610,0.5649,-0.3023,-0.1397,0.656
6.4720,0.6500,-0.2663,0.1061,0.710
6.4810,0.6682,-0.2933,0.4487,0.857
6.4900,0.7004,-0.4607,0.7568,1.129
6.5000,0.8022,-0.5331,0.5518,1.110
6.5110,0.8967,-0.6020,0.0645,1.082
6.5230,0.8758,-0.6011,0.0672,1.064
6.5300,0.4273,-0.7128,-1.2518,1.503
6.5420,0.1555,-0.7238,-1.3867,1.572
6.5490,0.1037,-0.5670,-1.2253,1.354
6.5670,0.2061,-0.2914,-0.7008,0.786
6.5690,0.1362,-0.0918,0.0733,0.180
6.5810,0.3698,0.0326,0.6793,0.774
6.5890,0.4295,0.0270,0.7145,0.834
6.6000,0.3856,0.0653,0.4063,0.564
6.6090,0.3681,0.1674,0.3019,0.505
6.6210,0.4725,0.2807,0.1331,0.565
6.6310,0.4678,0.2582,-0.0948,0.543
6.6420,0.5711,0.1529,-0.1953,0.623
6.6540,0.6537,0.1132,-0.0764,0.668
6.6600,0.5582,0.1114,0.2480,0.621
6.6760,0.3951,-0.0018,0.3981,0.561
6.6810,0.1049,-0.1336,0.3382,0.379
6.6910,-0.0586,-0.2491,0.2381,0.350
6.7020,-0.1555,-0.4077,-0.0461,0.439
6.7080,0.1437,-0.1241,-0.2131,0.285
6.7200,0.8706,0.2206,-0.5391,1.048
6.7280,1.3971,0.4160,-0.4967,1.540
6.7430,1.5299,0.9024,0.0921,1.779
6.7490,1.3029,1.0259,1.5180,2.248
6.7600,1.4112,1.0360,0.2372,1.767
6.7740,1.3293,0.8948,-1.7066,2.341
6.7810,0.2601,0.2259,-3.2638,3.282
6.7900,-0.8445,-0.6140,-3.0029,3.179
6.7990,-0.9449,-0.8307,-2.8318,3.099
6.8100,-0.7437,-0.6633,-1.8644,2.114
6.8200,-0.4578,-0.2119,-0.9769,1.099
6.8280,-0.3483,0.2109,-0.3601,0.544
6.8430,-0.0236,0.4821,-0.1599,0.508
6.8540,0.2332,0.4163,-0.1953,0.516
6.8600,0.1314,0.2228,-0.2706,0.374
6.8890,0.0522,-0.0639,-0.4666,0.474
6.8930,0.0209,-0.2665,-0.7151,0.763
6.8950,-0.0168,-0.4373,-1.0187,1.109
6.9010,-0.1936,-0.5264,-1.1866,1.312
6.9100,-0.4501,-0.7241,-1.3596,1.605
6.9220,-0.9219,-0.8120,-1.3493,1.825
6.9300,-1.0468,-0.9427,-0.8008,1.620
6.9450,-0.8662,-0.9047,-0.2142,1.271
6.9490,-0.8039,-0.6819,0.5410,1.185
6.9770,-0.4418,-0.4567,1.0255,1.206
6.9780,-0.0488,-0.1894,1.2060,1.222
6.9800,0.1059,0.0848,0.8774,0.888
6.9920,0.0142,0.4398,0.3061,0.536
7.0000,-0.2121,0.6520,-0.0389,0.687
7.0090,0.6262,0.8497,-0.0311,1.056
7.0320,1.4600,1.2138,0.4317,1.947
7.0470,0.9237,1.2060,0.5755,1.624
7.0490,0.8627,1.1697,0.5856,1.567
7.0500,0.2659,0.7156,0.1734,0.783
7.0600,-0.0046,0.4940,-0.3045,0.580
7.0710,-0.2810,0.3570,-0.6399,0.785
7.0800,-1.0658,0.2872,-0.2451,1.131
7.0910,-0.9404,0.0021,-0.1158,0.947
7.0990,-0.6342,-0.2212,-0.3396,0.753
7.1100,-0.4810,-0.1262,-0.8710,1.003
7.1220,-0.4582,0.0041,-1.3780,1.452
7.1290,-0.3478,0.0722,-1.4984,1.540
7.1520,-0.2516,0.1327,-1.4188,1.447
7.1620,-0.3157,0.0950,-1.1498,1.196
7.1620,-0.5128,0.0109,-0.6509,0.829
7.1750,-0.8300,-0.0970,-0.1899,0.857
7.1800,-1.2497,-0.2879,0.0874,1.285
7.1890,-1.4685,-0.4223,0.3416,1.566
7.2010,-1.4758,-0.4794,0.4200,1.608
7.2090,-1.5725,-0.3970,0.4350,1.679
7.2200,-1.4325,-0.2974,0.2708,1.488
7.2300,-1.2080,-0.1992,0.1961,1.240
7.2410,-1.0409,-0.0869,0.1626,1.057
7.2490,-0.8256,-0.0059,0.0719,0.829
7.2640,-0.8026,0.1691,-0.0137,0.820
7.2720,-0.7041,0.3529,-0.2095,0.815
7.2810,-0.5731,0.5844,-0.1622,0.834
7.2900,-0.2193,0.8976,-0.1115,0.931
7.3010,0.1213,1.4031,0.4606,1.482
7.3090,0.3373,1.9229,1.5144,2.471
7.3200,0.2977,1.9809,1.3703,2.427
7.3290,-0.1168,1.3589,0.5064,1.455
7.3400,-1.2057,0.6515,-0.6322,1.509
7.3490,-1.5546,0.2207,-1.5315,2.193
7.3620,-1.3635,0.0100,-2.2396,2.622
7.3720,-1.3827,0.0437,-2.3614,2.737
7.3800,-1.3871,0.3082,-1.9445,2.408
7.3910,-1.4296,0.4270,-1.4703,2.095
7.4020,-2.0079,0.2821,-0.7822,2.173
7.4130,-1.5317,0.4492,0.4933,1.671
7.4220,-1.0824,0.5547,1.4882,1.922
7.4320,-1.4164,1.0014,2.3571,2.927
7.4450,-1.8445,0.6701,2.0818,2.861
7.4490,-1.8166,0.2766,1.1863,2.187
7.4740,-1.8183,-0.0011,0.1342,1.823
7.4770,-1.5276,-0.1410,-1.1762,1.933
7.4800,-0.4544,-0.3112,-2.0343,2.107
7.4890,0.0641,-0.7133,-2.3360,2.443
7.5010,-0.7620,-0.8591,-1.5505,1.929
7.5100,-1.1031,-1.2158,0.9925,1.918
7.5250,-0.7753,-1.2065,1.0668,1.787
7.5300,-1.2113,-1.3917,-0.8659,2.038
7.5400,-1.3520,-1.9088,-2.5364,3.450
7.5500,-1.1636,-2.4583,-3.8995,4.754
7.5620,-1.5207,-2.0908,-3.5159,4.364
7.5690,-1.3565,-1.4731,-3.5685,4.092
7.5800,-2.3488,-1.2668,-5.0939,5.751
7.5900,2.3123,-0.1898,-3.0170,3.806
7.6000,0.9238,-1.0900,-3.8460,4.103
7.6090,-0.2106,-2.4136,-8.8619,9.187
7.6250,-0.5105,-3.0733,-6.8878,7.560
7.6320,-0.5236,-2.3909,-5.8154,6.309
7.6480,-0.1521,-2.1473,-4.7739,5.237
7.6520,-0.0660,-2.4906,-3.5926,4.372
7.6620,-0.6409,-2.7777,-3.1247,4.230
7.6740,-1.2286,-3.0356,-3.0394,4.468
7.6820,-2.0211,-3.7647,-5.2403,6.762
7.6890,-1.2094,-3.8927,-3.7102,5.512
7.7010,0.0612,-3.1117,2.5763,4.040
7.7090,-0.2714,-3.4904,3.9425,5.273
7.7230,0.6954,-3.8395,3.9420,5.547
7.7280,0.3323,-4.5865,2.1044,5.057
7.7410,0.2938,-5.1969,-0.0442,5.205
7.7490,0.7633,-4.9219,-1.6946,5.261
7.7650,1.6628,-3.8053,-3.4502,5.399
7.7710,2.0034,-2.8149,-4.6043,5.756
7.7810,2.1290,-1.9498,-4.9834,5.759
7.7950,1.7692,-1.8847,-4.0439,4.800
7.8040,0.9378,-2.8099,-2.2384,3.713
7.8100,0.7548,-3.8535,-0.5324,3.963
7.8240,1.8425,-4.8076,0.5831,5.181
7.8310,3.2992,-5.1879,0.5829,6.176
7.8470,4.0830,-5.2147,0.7907,6.670
7.8500,4.1707,-4.8088,0.2497,6.370
7.8600,3.1558,-4.1230,-1.5866,5.429
7.8700,3.3079,-3.5583,-2.7655,5.590
7.8800,-0.7359,-2.8704,-3.9747,4.958
7.8910,-1.7935,-3.1778,-3.8188,5.282
7.9000,-1.7619,-5.8194,-1.0092,6.163
7.9140,-2.6077,-7.6330,3.2035,8.679
7.9230,-1.8513,-7.5334,6.3498,10.025
7.9300,-2.7307,-6.6581,7.5436,10.426
7.9410,-4.3788,-5.4195,7.5409,10.267
7.9510,-5.1333,-3.7031,6.5199,9.087
7.9670,-5.1645,-2.4445,5.0159,7.603
7.9700,-4.5215,-1.7856,3.4393,5.955
7.9810,-4.0040,-1.8045,2.7231,5.168
7.9910,-3.8243,-1.9464,2.0358,4.750
7.9990,-4.2473,-1.7237,1.5517,4.839
8.0100,-4.9248,-1.4640,5.6049,7.603
8.0260,-6.8368,-1.2699,5.9838,9.174
8.0290,-6.3803,-0.6142,5.4940,8.442
8.0400,-6.0752,-0.3291,3.6171,7.078
8.0490,-4.7179,0.2392,1.9102,5.096
8.0600,-4.1110,0.5856,1.2373,4.333
8.0690,-4.3706,0.7141,0.9211,4.523
8.0810,-4.7129,0.8841,0.5924,4.832
8.0920,-5.2345,1.1630,0.3215,5.372
8.1030,-5.2135,1.3971,1.0441,5.498
8.1100,-4.9967,1.3747,1.2514,5.331
8.1220,-4.7853,1.4117,0.8581,5.062
8.1340,-4.6465,1.3946,0.4663,4.874
8.1410,-4.1050,1.8029,0.0433,4.484
8.1540,-3.8612,2.2536,-2.0536,4.920
8.1620,-4.0777,2.2966,-1.6409,4.959
8.1710,-3.7418,1.9592,-0.2000,4.228
8.1840,-3.2815,1.9548,0.5975,3.866
8.1900,-2.5267,2.0897,0.4237,3.306
8.2140,-1.4330,2.0879,1.5375,2.963
8.2170,-1.5906,1.9966,1.2200,2.829
8.2200,-1.8818,1.7449,0.1992,2.574
8.2300,-1.9340,1.6259,0.7111,2.625
8.2490,-1.9699,1.6429,1.3707,2.908
8.2510,-2.5814,1.8348,1.3171,3.430
8.2760,-2.5935,1.4844,0.3103,3.004
8.2770,-2.3481,0.9346,-0.1840,2.534
8.2830,-1.8408,0.7498,0.9226,2.191
8.2930,-2.4286,0.4646,0.6755,2.563
8.3020,-2.1019,0.5200,-0.3398,2.192
8.3120,-0.3928,1.0039,-0.8469,1.371
8.3250,0.5246,1.1738,-1.0696,1.672
8.3310,0.5099,0.9430,-0.9209,1.413
8.3420,0.8107,0.4072,-0.6463,1.114
8.3530,0.9473,-0.4366,-0.2864,1.082
8.3610,0.2175,-1.4944,0.2535,1.531
8.3700,-0.2970,-1.9309,0.7507,2.093
8.3890,-0.8684,-2.2804,1.2195,2.728
8.3950,-1.0382,-2.5306,1.1525,2.968
8.4010,-0.4652,-2.5577,0.7064,2.694
8.4110,0.3416,-2.4533,0.1461,2.481
8.4210,1.3015,-2.1779,-0.2599,2.550
8.4290,1.6038,-2.1502,-0.1371,2.686
8.4420,1.5956,-2.3414,0.1589,2.838
8.4490,1.3687,-2.5440,0.4488,2.923
8.4670,0.6575,-2.7251,0.4584,2.841
8.4700,-0.2119,-2.5793,0.2189,2.597
8.4810,-0.3930,-2.0722,0.0944,2.111
8.4930,-0.2577,-1.3628,0.1658,1.397
8.5020,-0.2762,-0.8226,-0.0098,0.868
8.5100,-0.7411,-0.3499,-0.0248,0.820
8.5200,-1.2020,0.1777,0.0911,1.218
8.5280,-1.4197,0.6106,0.2719,1.569
8.5410,-1.0983,0.6403,0.3019,1.307
8.5490,-1.2817,0.4147,1.4864,2.006
8.5610,-1.3831,0.3711,3.3311,3.626
8.5700,-0.2011,1.1063,2.3408,2.597
8.5800,1.5061,2.3214,-1.3084,3.061
8.5910,2.2631,3.0802,-1.5269,4.116
8.6010,1.2699,2.7447,1.6400,3.440
8.6130,0.1797,1.8661,1.8173,2.611
8.6230,-0.1462,0.6527,1.7812,1.903
8.6310,0.7963,0.6757,-0.0773,1.047
8.6470,1.6226,1.4658,-1.7121,2.777
8.6490,1.9987,1.9785,-1.0349,2.997
8.6600,1.2176,1.7633,-0.4493,2.189
8.6730,0.3546,0.8410,-0.6811,1.139
8.6800,0.8138,0.2325,-0.7812,1.152
8.6900,1.9461,-0.3070,-0.6718,2.082
8.7000,2.2369,-0.8461,-0.2208,2.402
8.7100,2.4887,-1.2288,0.3481,2.797
8.7200,2.7749,-1.6468,0.5504,3.273
8.7300,2.8996,-2.0375,0.4221,3.569
8.7470,2.8972,-1.9568,-0.0516,3.497
8.7520,2.5269,-1.9799,-0.0429,3.210
8.7690,0.2442,-2.4209,1.2599,2.740
8.7750,-0.9211,-2.6331,1.9539,3.406
8.7800,-0.6740,-2.2146,1.9050,2.998
8.7930,-0.3303,-1.8586,1.4573,2.385
8.8010,0.1337,-1.5357,1.4394,2.109
8.8090,-0.1086,-1.5327,0.9328,1.797
8.8200,-0.1886,-1.3678,0.1463,1.388
8.8300,-0.3520,-0.7247,0.6074,1.009
8.8410,0.0779,-0.2867,0.9376,0.984
8.8520,0.5033,-0.3639,0.7908,1.006
8.8620,-0.0765,-0.5532,1.7861,1.871
8.8700,-1.1476,-0.7743,2.2812,2.668
8.8860,-2.1556,-1.6577,2.9713,4.028
8.8910,-1.1826,-0.8925,0.9473,1.759
8.9010,0.1133,0.1079,-1.8445,1.851
8.9110,-0.1924,0.1284,-1.3564,1.376
8.9200,-1.0118,0.4785,3.0033,3.205
8.9290,-1.0105,0.4947,3.7093,3.876
8.9620,3.0378,3.7925,-2.7091,5.563
8.9640,3.7297,3.8836,-3.1776,6.252
8.9650,2.4164,2.2711,-1.6290,3.695
8.9690,1.5097,1.6883,-0.8284,2.412
8.9800,-0.8138,0.0072,-0.2326,0.846
8.9940,-1.0533,-0.1011,0.7453,1.294
9.0000,-0.6057,0.4331,1.2404,1.447
9.0140,-1.1016,-0.9875,1.4284,2.056
9.0270,-3.4252,-4.0454,3.2718,6.229
9.0320,1.8566,1.9273,-1.5863,3.111
9.0430,3.3762,3.4348,-2.6095,5.478
9.0550,2.4157,2.6231,-1.5786,3.900
9.0600,1.6239,1.7664,-1.0193,2.607
9.0700,0.6508,1.4241,0.0166,1.566
9.0800,1.5995,3.0067,-0.4505,3.435
9.0950,1.8799,3.6553,-1.3763,4.335
9.1010,1.7006,2.8147,-1.6040,3.659
9.1100,1.3227,2.0921,-1.1536,2.731
9.1210,1.2435,2.0940,-1.1001,2.672
9.1290,1.3576,2.1938,-1.1187,2.812
9.1440,1.6010,2.3158,-0.8511,2.941
9.1500,1.1020,2.1883,-0.7580,2.565
9.1700,-0.3701,1.9239,-0.8040,2.118
9.1750,-1.4682,1.6387,-0.9463,2.395
9.1800,-2.0626,1.4012,-1.1530,2.747
9.1910,-1.6997,0.5293,-0.0587,1.781
9.2030,-0.8041,-0.2272,0.3012,0.888
9.2110,-0.0099,-0.3395,0.3559,0.492
9.2200,1.2846,-0.8379,0.1101,1.538
9.2300,1.8382,-2.0571,1.1197,2.977
9.2400,2.9186,-2.9103,2.1936,4.669
9.2490,2.3659,-3.4718,2.3691,4.823
9.2600,1.2380,-3.2535,1.4493,3.771
9.2690,0.8102,-0.5855,1.3483,1.678
9.2830,0.6547,-0.2410,-2.7685,2.855
9.2950,0.9080,-0.1522,-2.3481,2.522
9.3040,1.3284,1.6451,1.0000,2.339
9.3120,0.4265,1.5139,1.4587,2.145
9.3240,-1.1204,-0.0666,0.8426,1.403
9.3310,-1.2764,-0.7952,1.1145,1.872
9.3450,-1.0364,-0.9840,0.5651,1.537
9.3520,-0.8132,-0.9562,-0.1591,1.265
9.3610,-0.1561,-0.5727,-0.8589,1.044
9.3710,0.2768,-0.3916,-0.4561,0.662
9.3830,-0.2044,-0.6661,0.4622,0.836
9.4000,-0.5272,-0.5513,-0.0954,0.769
9.4060,-1.1657,-0.6350,-0.5631,1.442
9.4120,-1.3258,-0.8753,-1.2492,2.021
9.4290,-1.4705,-0.2409,-0.9140,1.748
9.4300,-0.8372,-0.1477,0.0717,0.853
9.4420,0.9626,0.2474,0.4165,1.078
9.4490,-0.8564,1.1206,0.0392,1.411
9.4620,-2.8745,1.1140,-1.2040,3.310
9.4710,-3.3033,1.3171,-1.6117,3.904
9.4890,-3.7675,0.9166,1.4010,4.123
9.4930,-5.6772,0.3769,0.0654,5.690
9.5010,3.0049,0.0252,-2.5587,3.947
9.5120,6.4967,-1.6922,-1.6958,6.924
9.5210,4.6423,-2.2404,0.2029,5.159
9.5330,3.6793,-1.8357,0.8092,4.191
9.5500,3.2146,-1.2271,1.0354,3.593
9.5550,0.0992,-0.6084,-0.1231,0.629
9.5610,-0.1700,-0.3985,-0.4721,0.641
9.5700,0.3882,0.0312,-0.1515,0.418
9.5820,0.9395,0.8347,-0.4720,1.342
9.5900,1.7964,1.4952,0.1191,2.340
9.6000,2.0324,1.9322,-0.0445,2.805
9.6120,0.9636,-0.2284,1.4361,1.744
9.6200,-0.0674,-0.2945,0.0112,0.302
9.6310,0.2775,0.9932,-0.0011,1.031
9.6410,1.7307,2.0553,-0.5670,2.746
9.6500,3.5814,2.7518,-1.9536,4.921
9.6630,3.7152,2.2157,-1.2665,4.507
9.6700,7.2283,3.1502,-2.5805,8.297
9.6930,5.6660,1.5483,-3.5668,6.872
9.7000,-1.4903,-4.4922,2.8890,5.545
9.7040,-5.6882,-6.6442,4.0673,9.646
9.7140,-3.0158,-3.3404,2.5429,5.169
9.7210,-0.6100,-0.4122,1.2092,1.416
9.7300,-0.7365,1.9430,-0.5682,2.154
9.7450,-3.1696,0.4590,-3.4034,4.673
9.7490,-1.9162,-0.6312,-3.2385,3.815
9.7600,0.0007,0.6518,-1.3247,1.476
9.7690,-0.0217,1.2827,0.5053,1.379
9.7970,-3.1767,0.1477,0.7524,3.268
9.8000,-2.8787,-0.1526,0.4506,2.918
9.8010,-2.0020,0.0078,1.4480,2.471
9.8110,-2.0549,0.0234,1.4594,2.521
9.8220,-1.9164,-1.2417,1.4416,2.701
9.8320,-1.2914,0.0428,-1.2723,1.813
9.8580,0.8789,2.1492,-0.3586,2.349
9.8630,-0.2006,2.8452,-0.0701,2.853
9.8640,-1.2759,1.4192,-0.6326,2.011
9.8710,-3.3615,1.5023,-3.1516,4.847
9.8820,0.9276,0.5639,1.2554,1.660
9.8890,3.3550,-1.3964,3.0768,4.762
9.9050,1.2725,-3.8920,0.1823,4.099
9.9090,-0.0963,-5.0586,1.0279,5.163
9.9350,-0.4418,-4.9091,0.8021,4.994
9.9360,0.8736,-3.2840,0.2299,3.406
9.9400,0.7932,-0.8411,-0.2678,1.187
9.9480,0.2168,0.0433,0.1225,0.253
9.9670,-0.2051,0.2316,-0.4019,0.507
9.9710,0.0472,0.7152,-0.3584,0.801
9.9870,0.6067,1.3421,-0.4971,1.555
9.9910,0.9102,2.0144,-0.7487,2.334
10.0020,0.9042,2.6624,-0.3521,2.834
10.0140,0.3161,3.3383,0.0372,3.353
10.0200,-0.0600,4.4840,-0.1430,4.487
10.0300,0.9189,4.8091,0.2491,4.902
10.0410,1.6671,4.9210,-0.0082,5.196
10.0500,1.7913,4.8212,-0.0535,5.143
10.0620,1.4207,4.6123,0.2875,4.835
10.0680,1.4751,4.4928,0.2098,4.733
10.0880,1.9856,4.8459,-0.0962,5.238
10.0910,2.4957,5.3305,0.7426,5.932
10.1010,1.4048,5.3307,1.7141,5.773
10.1150,1.5795,5.6792,2.1781,6.284
10.1200,2.3366,5.8513,1.4301,6.461
10.1330,2.8168,6.0146,0.4158,6.655
10.1430,2.8907,5.7180,0.3327,6.416
10.1530,2.5293,5.5133,-0.2488,6.071
10.1680,2.2950,5.2560,-0.3950,5.749
10.1720,0.5552,3.4027,0.3558,3.466
10.1800,-1.6297,2.3076,1.5764,3.235
10.1970,-1.1854,3.4478,1.5253,3.952
10.2000,0.0925,4.9302,0.4557,4.952
10.2110,-0.3755,3.0317,6.1425,6.860
10.2200,6.7370,-20.0567,10.4804,23.611
10.2350,2.7739,-29.4415,12.7807,32.216
10.2430,-3.1992,-29.4319,9.2352,31.012
10.2620,-3.2187,-21.4397,-0.6803,21.691
10.2630,-2.1783,-5.4501,-4.6908,7.513
10.2700,2.0253,3.7361,-6.0366,7.382
10.2910,5.7210,6.4585,-5.9218,10.465
10.2950,4.9993,5.0428,-7.8399,10.578
10.3130,2.2164,1.9234,-7.0898,7.673
10.3170,0.6753,0.5722,-5.1350,5.211
10.3220,-0.4377,0.2555,-3.5772,3.613
10.3300,-1.7366,-0.3984,-2.7464,3.274
10.3400,-2.3113,-0.4543,-1.7143,2.913
10.3520,-1.0629,-0.2007,-1.2660,1.665
10.3650,-0.0559,0.1788,-0.8859,0.906
10.3690,0.5685,0.4192,0.4293,0.827
10.3810,0.8576,0.4520,2.9715,3.126
10.3900,0.8512,-0.0489,4.4031,4.485
10.4010,0.8646,-0.1886,4.6372,4.721
10.4110,1.2438,0.0252,3.8914,4.085
10.4210,1.6012,0.1340,2.9390,3.350
10.4310,1.2210,-0.1203,0.9974,1.581
10.4410,0.7115,-0.4761,-0.8206,1.186
10.4530,0.4059,-0.6794,-2.0995,2.244
10.4710,0.0790,-0.6144,-2.5795,2.653
10.4760,-0.0529,-0.4365,-2.6023,2.639
10.4840,-0.0687,0.1234,-1.3192,1.327
10.4910,-0.3945,-0.0919,-0.5811,0.708
10.5010,-0.3057,-0.2543,-0.4025,0.566
10.5110,-0.0544,-0.1260,0.1250,0.186
10.5200,0.2026,-0.3012,0.4702,0.594
10.5290,0.1975,-0.1322,1.0557,1.082
10.5400,-0.0482,0.3011,1.5011,1.532
10.5530,-0.1631,0.7329,1.5460,1.719
10.5710,-0.0932,1.2602,1.6700,2.094
10.5720,0.0919,1.4410,1.7802,2.292
10.5850,0.4402,1.3590,1.8822,2.363
10.5890,0.6430,1.1268,1.5268,2.004
10.6030,0.6257,1.1694,1.1021,1.724
10.6150,0.7839,0.3738,1.0224,1.341
10.6220,0.2220,0.0486,0.5533,0.598
10.6320,0.3422,-0.5097,-0.4626,0.769
10.6410,0.5902,-1.3877,-1.0542,1.840
10.6630,0.8486,-1.2671,-0.2677,1.548
10.6660,0.8979,-0.8671,0.2300,1.269
10.6760,1.0074,-0.4852,-0.0141,1.118
10.6820,1.2042,-0.0724,-1.0075,1.572
10.6890,1.1760,0.2266,-1.6590,2.046
10.7000,0.7766,0.2414,-1.5230,1.727
10.7090,0.3228,0.1054,-0.6501,0.733
10.7200,0.1001,0.0503,0.1374,0.177
10.7310,0.0625,0.0733,0.6169,0.624
10.7440,0.2145,0.1188,0.8894,0.923
10.7510,0.4416,0.1805,0.9807,1.091
10.7620,0.5656,0.1832,0.8564,1.043
10.7700,0.6180,0.1256,0.5245,0.820
10.7830,0.5379,0.0318,0.1895,0.571
10.7910,0.3873,-0.0909,-0.0344,0.399
10.8010,0.2489,-0.1393,-0.1700,0.332
10.8110,0.1471,-0.1146,-0.2651,0.324
10.8200,0.1232,-0.0312,-0.3829,0.403
10.8310,0.1329,0.0798,-0.4361,0.463
10.8540,0.0708,0.0567,-0.3735,0.384
10.8550,0.0348,0.0243,-0.1319,0.139
10.8610,-0.0469,-0.0175,0.1071,0.118
10.8680,-0.0414,-0.0221,0.2931,0.297
10.8830,0.0313,-0.0291,0.3316,0.334
10.8890,0.1168,-0.0697,0.2051,0.246
10.9020,0.1886,-0.1212,0.1087,0.249
10.9100,0.2034,-0.2399,-0.0360,0.317
10.9210,0.1243,-0.3239,-0.1101,0.364
10.9310,-0.0281,-0.2987,-0.0887,0.313
10.9400,-0.0903,-0.0849,0.0424,0.131
10.9570,-0.3853,0.1435,0.0691,0.417
10.9640,-0.3901,0.3589,0.1023,0.540
10.9790,-0.4479,0.5264,0.2470,0.734
10.9840,-0.4924,0.5895,0.2668,0.813
10.9910,-0.4983,0.5771,0.3194,0.827
11.0010,-0.6893,0.3274,0.5179,0.922
11.0140,-0.6610,0.1672,0.6547,0.945
11.0220,-0.6618,-0.0844,0.7534,1.006
11.0300,-0.0532,0.0993,0.5388,0.550
11.0410,0.8632,0.4515,0.1302,0.983
11.0500,0.7375,0.2545,-0.0619,0.783
11.0600,1.0837,0.2457,0.1525,1.122
11.0690,0.7629,-0.0832,-0.0218,0.768
11.0850,0.2019,-0.4676,0.0393,0.511
11.0900,0.0555,-0.5054,0.2275,0.557
11.1080,0.7019,0.4840,0.0067,0.853
11.1090,0.7620,0.6522,-0.6163,1.177
11.1220,0.3144,0.1178,-0.6919,0.769
11.1310,0.2359,-0.0704,-0.0742,0.257
11.1430,0.0190,-0.2932,-0.0544,0.299
11.1490,-0.0654,-0.2729,0.0493,0.285
11.1600,0.0452,-0.0709,0.0776,0.114
11.1700,0.0975,0.0676,-0.0181,0.120
11.1800,-0.0554,0.0324,-0.1066,0.124
11.1900,0.0305,0.0032,-0.0322,0.044
11.2020,0.4467,0.2731,-0.2034,0.562
11.2090,0.4388,0.2987,-0.3305,0.625
11.2200,0.4196,0.1975,-0.2156,0.511
11.2300,0.3745,0.0892,0.0026,0.385
11.2400,0.2956,-0.0166,0.1656,0.339
11.2500,0.4266,0.1135,0.1317,0.461
11.2600,0.5831,0.2579,-0.0169,0.638
11.2700,0.5767,0.2526,-0.0909,0.636
11.2810,0.4688,0.1299,-0.1659,0.514
11.2890,0.4705,0.0203,-0.1527,0.495
11.3010,0.5587,-0.0162,-0.0865,0.566
11.3120,0.4803,-0.0144,-0.1111,0.493
11.3200,0.2959,-0.0999,-0.2146,0.379
11.3320,0.1694,-0.1603,-0.1093,0.258
11.3410,0.0342,-0.1849,-0.0666,0.199
11.3520,0.0438,-0.1006,-0.0736,0.132
11.3610,-0.0093,-0.1374,-0.0641,0.152
11.3700,-0.0095,-0.1383,-0.0336,0.143
11.3840,0.0985,-0.0746,-0.1114,0.166
11.3920,0.1024,-0.0898,-0.2116,0.252
11.4030,0.1369,-0.1242,-0.2065,0.277
11.4090,0.1963,-0.1069,-0.1998,0.300
11.4220,0.2129,-0.0655,-0.1470,0.267
11.4310,0.2058,-0.0648,-0.1389,0.257
11.4400,0.4720,-0.0999,-0.0398,0.484
11.4500,0.6145,-0.1792,-0.0219,0.641
11.4600,0.7546,-0.1852,0.0503,0.779
11.4700,0.8217,-0.1097,0.2086,0.855
11.4840,0.7960,0.0547,0.2898,0.849
11.4900,0.5476,0.2395,0.2943,0.666
11.5040,0.1140,0.3417,0.3132,0.477
11.5100,-0.4287,0.4532,0.2808,0.684
11.5220,-0.8702,0.4818,0.2722,1.031
11.5300,-1.1792,0.4071,0.1894,1.262
11.5410,-1.1649,0.3489,0.1549,1.226
11.5510,-0.9580,0.2787,0.1502,1.009
11.5600,-0.7189,0.1985,0.0787,0.750
11.5700,-0.5040,0.1240,0.0620,0.523
11.5900,-0.3204,0.0805,0.0946,0.344
11.5910,-0.1515,0.0801,-0.0029,0.171
11.6010,-0.0614,0.0437,-0.1706,0.187
11.6100,0.0359,0.0631,-0.2391,0.250
11.6200,0.1428,0.1020,-0.3997,0.437
11.6310,0.1439,0.0511,-0.4623,0.487
11.6410,0.0941,0.0351,-0.3963,0.409
11.6640,0.0905,0.0431,-0.0695,0.122
11.6690,0.2159,0.1122,0.0762,0.255
11.6750,0.2857,0.1706,0.0458,0.336
11.6810,0.1889,0.1524,0.2000,0.315
11.6900,0.3322,0.1773,0.2529,0.454
11.7010,0.2580,0.0717,0.3577,0.447
11.7120,0.4320,0.1505,0.4401,0.635
11.7200,0.4415,0.1515,0.3150,0.563
11.7310,0.3504,0.0353,0.1670,0.390
11.7400,0.1228,-0.0473,0.0862,0.157
11.7510,-0.0233,-0.0424,0.0543,0.073
11.7600,-0.0733,-0.0208,-0.1002,0.126
11.7700,-0.1054,-0.0710,-0.2252,0.259
11.7810,-0.1004,-0.0747,-0.1494,0.195
11.7910,-0.1235,-0.0423,-0.0308,0.134
11.8000,-0.0773,0.0140,0.0107,0.079
11.8090,-0.0761,0.0763,0.0123,0.108
11.8210,-0.1104,0.0715,-0.0654,0.147
11.8320,-0.0527,0.1014,-0.1761,0.210
11.8500,0.0398,0.1433,-0.2894,0.325
11.8530,0.0404,0.1433,-0.2885,0.325
11.8600,0.2130,0.1852,-0.2702,0.391
11.8740,0.1972,0.1901,-0.2121,0.346
11.8820,0.1445,0.1699,-0.1021,0.245
11.9020,0.0724,0.1317,-0.0147,0.151
11.9030,0.0399,0.1163,0.0398,0.129
11.9100,0.0438,0.0985,-0.0317,0.112
11.9200,0.0532,0.0602,-0.1610,0.180
11.9310,0.0897,0.0290,-0.2999,0.314
11.9410,0.1183,0.0001,-0.2796,0.304
11.9490,0.1355,0.0072,-0.2251,0.263
11.9600,0.1096,0.0682,-0.2071,0.244
11.9720,0.0480,0.0836,-0.2104,0.231
11.9810,0.0131,0.1051,-0.2237,0.248
11.9900,-0.0012,0.0427,-0.1827,0.188
12.0000,0.0471,0.0090,-0.1452,0.153
12.0090,0.1133,-0.0055,-0.0619,0.129
12.0200,0.1590,-0.0008,-0.0241,0.161
12.0330,0.1046,0.0362,0.0255,0.114
12.0430,0.0208,0.0541,0.0472,0.075
12.0530,-0.0540,0.0720,0.0675,0.113
12.0610,-0.1279,0.0971,0.0618,0.172
12.0690,-0.1622,0.1210,0.0234,0.204
12.0820,-0.1735,0.1377,0.0470,0.226
12.0890,-0.1680,0.1376,0.0991,0.239
12.1010,-0.1225,0.1051,0.1442,0.216
12.1080,-0.1032,0.0739,0.2119,0.247
12.1230,-0.1147,0.0738,0.2158,0.255
12.1310,-0.1298,0.1179,0.2024,0.268
12.1400,-0.1687,0.1548,0.1454,0.271
12.1520,-0.1956,0.1355,0.1128,0.263
12.1600,-0.1781,0.1257,0.1529,0.266
12.1690,-0.1413,0.1159,0.1941,0.267
12.1810,-0.1093,0.1013,0.2071,0.255
12.1900,-0.0927,0.0520,0.1839,0.212
12.2000,-0.0075,-0.0046,0.1640,0.164
12.2090,0.0619,-0.0324,0.1655,0.180
12.2210,0.1481,-0.0314,0.1228,0.195
12.2300,0.1742,-0.0149,0.0586,0.184
12.2410,0.2071,0.0351,0.0090,0.210
12.2490,0.1950,0.0745,0.0150,0.209
12.2600,0.1678,0.0959,0.0455,0.199
12.2730,0.1495,0.1366,0.1173,0.234
12.2950,0.1438,0.1282,0.1823,0.265
12.2980,0.1222,0.1103,0.2064,0.264
12.3000,0.0597,0.0875,0.1918,0.219
12.3100,0.0429,0.0671,0.1095,0.135
12.3210,0.0442,0.0599,0.0331,0.081
12.3330,0.0377,0.0766,0.0077,0.086
12.3400,0.0225,0.0849,0.0064,0.088
12.3530,0.0065,0.1110,0.0451,0.120
12.3620,-0.0177,0.1408,0.1452,0.203
12.3700,-0.0262,0.1826,0.1116,0.216
12.3810,-0.0692,0.2446,0.0999,0.273
12.3890,-0.1035,0.2983,0.0800,0.326
12.4030,-0.1233,0.2980,0.0418,0.325
12.4100,-0.1091,0.2821,0.1158,0.324
12.4210,-0.0981,0.1884,0.1428,0.256
12.4300,-0.0881,0.0576,0.1334,0.170
12.4410,-0.0684,-0.0877,0.0962,0.147
12.4550,-0.0562,-0.1958,0.0865,0.221
12.4610,-0.0494,-0.2596,0.0380,0.267
12.4700,-0.0194,-0.2826,-0.0457,0.287
12.4830,0.0141,-0.2564,-0.1366,0.291
12.4890,0.0744,-0.1654,-0.2204,0.285
12.5020,0.1509,-0.0552,-0.2465,0.294
12.5090,0.2092,0.0454,-0.2027,0.295
12.5230,0.2861,0.1079,-0.1010,0.322
12.5300,0.3397,0.1501,0.0957,0.383
12.5410,0.3099,0.1637,0.2513,0.431
12.5500,0.2338,0.1713,0.4176,0.508
12.5660,0.1411,0.1742,0.4670,0.518
12.5720,0.0538,0.1602,0.3741,0.410
12.5890,0.0277,0.1689,0.2606,0.312
12.5910,0.0660,0.1703,0.1067,0.212
12.6010,0.1339,0.1967,0.0248,0.239
12.6090,0.1654,0.2434,0.0301,0.296
12.6220,0.1027,0.2650,0.0234,0.285
12.6300,-0.0557,0.2219,0.0352,0.231
12.6410,-0.1967,0.1490,0.0967,0.265
12.6490,-0.3154,0.0712,0.1660,0.363
12.6620,-0.3368,0.0449,0.1937,0.391
12.6700,-0.2737,0.0567,0.1670,0.326
12.6820,-0.1034,0.0648,0.1613,0.202
12.6900,0.0811,0.0512,0.0633,0.115
12.7010,0.2549,0.0030,-0.0660,0.263
12.7090,0.3213,-0.0440,-0.1251,0.348
12.7230,0.3573,-0.1315,-0.0821,0.389
12.7300,0.3702,-0.1733,-0.0411,0.411
12.7400,0.3560,-0.1741,-0.0308,0.398
12.7510,0.3473,-0.1640,-0.0623,0.389
12.7600,0.3071,-0.1776,-0.0518,0.359
12.7700,0.1966,-0.1467,0.0382,0.248
12.7800,0.1003,-0.0271,0.1786,0.207
12.7930,0.0576,0.0998,0.1407,0.182
12.8010,0.0126,0.1465,0.0949,0.175
12.8100,-0.0394,0.1153,0.1050,0.161
12.8210,-0.0674,0.0949,0.1425,0.184
12.8290,-0.0933,0.1198,0.2442,0.288
12.8470,-0.1183,0.0764,0.3885,0.413
12.8520,-0.1109,-0.0137,0.4851,0.498
12.8610,-0.1347,-0.1113,0.5037,0.533
12.8700,-0.1633,-0.1048,0.4609,0.500
12.8800,-0.1896,-0.0206,0.3503,0.399
12.8910,-0.2041,0.0181,0.2424,0.317
12.9040,-0.2586,0.0543,0.1870,0.324
12.9110,-0.3062,0.0976,0.2087,0.383
12.9240,-0.3286,0.1625,0.3521,0.508
12.9300,-0.3386,0.2405,0.4866,0.640
12.9400,-0.3264,0.2897,0.5754,0.722
12.9490,-0.3133,0.3352,0.6064,0.760
12.9610,-0.2619,0.3793,0.5954,0.753
12.9710,-0.2299,0.4138,0.5714,0.742
12.9950,-0.2238,0.4123,0.5725,0.740
12.9970,-0.2000,0.4789,0.5329,0.744
13.0010,-0.1943,0.4784,0.5226,0.735
13.0100,-0.1332,0.5172,0.5037,0.734
13.0200,-0.0901,0.5584,0.5042,0.758
13.0350,-0.0412,0.6713,0.5122,0.845
13.0390,-0.0714,0.7326,0.5675,0.929
13.0600,-0.0106,0.8428,0.8339,1.186
13.0610,0.0490,0.8390,0.9540,1.271
13.0690,0.3000,0.8120,1.0127,1.332
13.0820,0.6206,0.8456,1.3625,1.719
13.0890,1.0603,0.8413,1.2954,1.874
13.1010,1.3873,0.9106,1.2070,2.052
13.1100,1.4413,0.9967,1.0036,2.019
13.1220,1.3163,1.1353,1.0456,2.029
13.1310,0.4142,1.0165,1.8963,2.191
13.1400,-0.9812,0.9312,3.3382,3.602
13.1490,-2.7435,0.7985,4.4561,5.294
13.1600,-3.9949,0.5828,4.7553,6.238
13.1730,-5.4273,-0.0106,3.2245,6.313
13.1800,-7.5429,-1.1532,1.7844,7.836
13.1900,-9.0211,-2.6646,0.8547,9.445
13.2000,-4.7162,-2.8716,-1.0526,5.621
13.2090,0.4245,-3.2162,-4.4087,5.474
13.2200,1.2960,-4.2348,-5.8990,7.376
13.2290,0.5950,-4.7689,-6.6119,8.174
13.2400,-0.2019,-3.9382,-6.7209,7.792
13.2520,-0.6782,-3.0730,-5.5440,6.375
13.2600,-0.5126,-1.6972,-3.9416,4.322
13.2760,-0.9089,-0.6160,-2.1098,2.378
13.2800,-0.6941,0.6102,-0.7752,1.206
13.2900,-0.3374,1.5706,-0.2771,1.630
13.3060,-0.3956,2.4060,0.6729,2.530
13.3110,-0.7688,2.6899,1.1661,3.031
13.3220,-1.1147,2.8260,2.1062,3.697
13.3310,-0.7303,2.9748,2.7650,4.127
13.3400,-0.1702,2.6400,3.1079,4.081
13.3540,0.0115,2.3448,2.8643,3.702
13.3610,0.0768,2.2892,2.2193,3.189
13.3700,-0.1708,2.1369,1.5393,2.639
13.3800,-0.2389,1.9894,0.4716,2.058
13.3890,-0.3840,1.7653,-0.1225,1.811
13.4060,-0.4814,1.5398,-0.3382,1.648
13.4090,-0.6910,1.3322,-0.1694,1.510
13.4200,-1.1471,1.1199,0.3267,1.636
13.4290,-1.3374,1.0227,0.6636,1.810
13.4440,-1.6446,0.8824,1.0371,2.135
13.4520,-1.8616,0.8188,1.2495,2.387
13.4600,-1.9261,0.8072,1.7714,2.739
13.4760,-2.4872,0.5790,2.1273,3.324
13.4830,-2.1649,0.6223,1.2876,2.595
13.4890,-1.9113,0.6222,0.2871,2.030
13.5010,-2.1530,0.4525,-0.5606,2.270
13.5080,-2.3187,0.3225,-0.8685,2.497
13.5210,-2.1181,0.2476,-1.0854,2.393
13.5290,-2.0127,0.0866,-0.9241,2.216
13.5400,-1.8717,0.0686,-0.8056,2.039
13.5540,-1.8198,0.0559,-0.8060,1.991
13.5620,-1.4228,0.3785,-0.2166,1.488
13.5720,-1.3786,0.3750,-0.1948,1.442
13.5830,-1.1682,0.5899,0.6392,1.456
13.5890,-0.8385,0.7712,1.0319,1.537
13.6050,-0.6298,0.9676,1.1513,1.630
13.6090,-1.0111,0.8502,1.4182,1.938
13.6200,-1.3520,0.3711,1.9621,2.412
13.6280,-1.6227,-0.8649,1.9492,2.680
13.6400,-1.9975,-3.2673,1.2544,4.030
13.6600,-1.8342,-8.0533,0.5461,8.278
13.6610,-1.2715,-12.0358,-0.2242,12.105
13.6730,1.5184,-9.4405,-2.0915,9.788
13.6800,2.8580,-3.2630,-3.9044,5.836
13.6930,1.9913,-0.7011,-2.5609,3.319
13.7040,2.2563,0.6905,-1.3770,2.732
13.7090,3.1385,1.2154,-0.6102,3.421
13.7220,3.5755,0.7719,-0.2676,3.668
13.7290,4.2208,-0.9062,-0.7912,4.389
13.7420,4.5051,-3.0322,-1.4879,5.631
13.7550,4.4630,-5.0310,-2.6857,7.242
13.7620,4.4367,-6.4317,-2.9031,8.335
13.7750,3.6276,-6.3864,-3.1363,7.986
13.7800,2.6531,-4.0735,-3.1201,5.776
13.7890,2.5871,-1.4385,-2.7522,4.042
13.8010,2.2633,0.2929,-2.1779,3.155
13.8080,1.7121,1.3847,-1.3523,2.584
13.8280,0.9916,2.3130,0.3114,2.536
13.8320,1.0199,2.8263,2.1652,3.703
13.8440,0.6961,3.0201,3.7924,4.898
13.8520,0.4875,2.9601,4.9312,5.772
13.8600,0.3929,2.5799,6.3133,6.831
13.8700,0.8350,2.5076,7.7825,8.219
13.8830,0.7472,2.5031,7.6638,8.097
13.8900,2.2995,4.1180,4.1824,6.304
13.9000,2.1594,4.4991,1.0258,5.095
13.9080,0.9658,4.2143,-1.8031,4.684
13.9210,-0.7522,3.3980,-4.2081,5.461
13.9280,-0.1150,2.6975,-12.2101,12.505
13.9410,2.7319,2.1007,-13.0408,13.488
13.9500,1.9774,1.9188,-6.7729,7.312
13.9630,1.0916,2.1831,-1.4444,2.836
13.9710,1.6505,1.4835,1.6728,2.779
13.9890,1.7473,-0.5859,0.5478,1.923
13.9900,0.8684,-2.7284,-1.2636,3.130
14.0020,-0.0226,-2.9041,-0.8149,3.016
14.0090,0.9604,-1.8425,-0.1615,2.084
14.0200,1.6739,-1.0410,0.6508,2.076
14.0320,1.2835,-0.1413,0.9899,1.627
14.0430,0.9200,0.3397,2.1747,2.386
14.0550,0.4056,0.6340,3.0152,3.108
14.0630,-0.5881,-0.0176,3.8480,3.893
14.0810,-2.1753,-0.1846,4.6444,5.132
14.0820,-3.2798,0.7786,5.4058,6.371
14.0890,-4.8504,2.0056,6.2615,8.170
14.1000,-5.7929,3.0535,6.0925,8.944
14.1090,-4.7201,3.0864,5.2522,7.707
14.1200,-3.8217,2.1234,4.3096,6.139
14.1300,-2.7297,0.8537,5.1566,5.897
14.1420,-2.0317,0.0871,4.9152,5.319
14.1510,-2.5055,-0.5461,5.3234,5.909
14.1610,-3.3015,-0.3117,6.5532,7.345
14.1740,-4.1389,0.8241,4.9340,6.493
14.1840,-5.0013,1.1036,2.6951,5.787
14.1930,-3.7903,1.2050,1.2798,4.178
14.2070,-3.6021,0.4765,0.4932,3.667
14.2110,-4.1070,0.0067,-0.1731,4.111
14.2240,-3.4847,-0.6707,-0.3953,3.571
14.2310,-0.5265,-6.4313,-0.7693,6.498
14.2410,6.4716,-13.4309,0.1863,14.910
14.2490,11.0689,-17.3483,-1.0091,20.603
14.2600,9.6994,-17.1697,-2.7991,19.918
14.2840,7.6427,-14.5987,-3.1149,16.770
14.2890,7.2929,-11.7893,-2.9202,14.167
14.2950,5.2066,-7.3468,-2.9830,9.486
14.3050,4.1928,-4.1982,-1.7237,6.179
14.3110,2.4092,-2.2725,-1.7331,3.738
14.3200,1.0509,-0.8997,-5.1980,5.379
14.3340,-0.9152,1.5023,-11.4555,11.590
14.3440,-4.7203,2.0992,-14.8437,15.717
14.3500,-7.2462,2.1476,-13.1848,15.197
14.3610,-6.0346,2.1778,-10.9550,12.695
14.3780,-0.1987,3.1002,-10.1824,10.646
14.3800,2.5931,3.0108,-6.3886,7.523
14.3890,4.6336,3.0919,-2.3302,6.038
14.4090,6.9818,3.9911,0.9233,8.095
14.4120,8.2198,5.1920,4.3891,10.667
14.4230,7.4856,6.1906,7.5601,12.309
14.4290,6.7529,6.9298,8.2823,12.737
14.4400,6.8804,7.3615,6.1597,11.810
14.4490,7.5730,6.2308,2.5118,10.123
14.4600,6.5244,4.0628,-2.1169,7.972
14.4700,6.0681,2.5036,-5.2298,8.393
14.4800,5.9170,0.7570,-7.9904,9.971
14.4890,5.2142,-0.7937,-7.6526,9.294
14.4990,4.6785,-1.8022,-5.2643,7.270
14.5090,3.7312,-2.0705,-3.7440,5.677
14.5220,2.4572,-1.6036,-2.6723,3.969
14.5290,0.3747,-1.3819,-2.4706,2.856
14.5430,-2.1608,-1.3277,-2.5003,3.561
14.5500,-4.2936,-1.0460,-1.7640,4.758
14.5610,-6.1167,-0.6107,0.1842,6.150
14.5740,-6.6136,-0.1194,1.8216,6.861
14.5810,-5.4975,0.3195,2.4745,6.037
14.5910,-3.8679,0.1061,3.0969,4.956
14.6030,-3.0179,-1.0641,5.2405,6.140
14.6110,-1.7137,-2.1121,5.9195,6.514
14.6340,0.1260,-3.0415,6.0923,6.810
14.6350,2.3267,-4.0639,4.1677,6.269
14.6400,2.9523,-7.2538,2.7497,8.300
14.6490,4.2161,-18.2463,2.4845,18.891
14.6730,3.4291,-28.9870,0.6633,29.197
14.6770,8.1121,-13.1639,-6.5484,16.792
14.6920,10.0247,-1.3040,-12.5867,16.144
14.6930,9.9190,2.1985,-12.7344,16.291
14.7010,7.7403,1.3029,-7.9583,11.178
14.7140,6.2664,0.0798,-4.7637,7.872
14.7310,6.7468,-1.1272,-3.8166,7.833
14.7330,7.3270,-2.7661,-2.6690,8.274
14.7400,7.4616,-3.8229,-0.9054,8.433
14.7490,7.2533,-3.6464,0.4528,8.131
14.7600,7.0956,-2.3317,0.9180,7.525
14.7750,6.6403,-0.9040,2.4008,7.119
14.7800,5.8075,0.3186,3.7537,6.922
14.7900,5.1227,1.5110,3.9612,6.650
14.8000,5.2412,2.1917,5.7548,8.087
14.8110,5.8130,2.5257,5.5062,8.396
14.8220,5.5302,2.7485,3.6283,7.163
14.8300,4.5569,2.8282,1.6767,5.619
14.8480,2.9382,2.7903,-0.5302,4.087
14.8510,1.7264,2.9571,-2.3190,4.136
14.8620,0.7816,3.1713,-3.3499,4.679
14.8720,-0.3246,3.4916,-4.0472,5.355
14.8810,0.3432,3.9145,-2.5804,4.701
14.9000,0.6862,4.1095,-1.2004,4.336
14.9010,1.4542,3.9810,-0.0934,4.239
14.9090,3.5284,3.5142,-2.6342,5.634
14.9240,6.3169,2.4967,-4.7446,8.285
14.9300,6.9980,1.4207,-3.0522,7.766
14.9420,4.6302,0.5800,1.3592,4.860
14.9490,1.1392,0.0304,3.6685,3.841
14.9600,-1.3036,-0.5635,2.1040,2.538
14.9740,-1.1801,-1.4656,-0.2719,1.901
14.9800,-0.3647,-2.4251,-1.8003,3.042
15.0000,-0.4964,-2.0370,-1.2546,2.443
15.0010,-2.2982,-0.5915,0.4439,2.414
15.0090,-3.8696,0.9218,2.3017,4.596
15.0210,-3.6868,2.2650,3.8340,5.781
15.0350,-3.3631,3.2687,5.4524,7.192
15.0420,-2.6176,2.7527,5.4776,6.666
15.0620,-1.6342,1.9925,4.0503,4.801
15.0630,-2.5159,1.0929,3.8471,4.725
15.0760,-4.3601,0.2229,2.5556,5.059
15.0800,-5.6345,-0.0527,2.3112,6.090
15.0900,-5.7783,0.7301,2.8756,6.496
15.1000,-4.7779,2.5127,3.6413,6.512
15.1160,-4.2614,3.3939,3.9329,6.719
15.1290,-3.9035,3.6518,2.6428,5.963
15.1300,-3.1946,3.9757,0.5344,5.128
15.1430,-2.5488,3.5520,-0.8650,4.457
15.1500,-2.3039,2.6573,-0.9617,3.646
15.1600,1.1168,-1.6606,1.7282,2.644
15.1730,1.3935,-1.7352,1.6468,2.769
15.1810,15.4029,-15.2840,3.3534,21.957
15.1980,13.3112,-20.8082,3.2820,24.919
15.1990,8.3950,-24.6835,1.7633,26.132
15.2230,4.3848,-22.7299,-0.7982,23.163
15.2240,4.3760,-22.7625,-0.9103,23.197
15.2290,0.8933,-8.6643,-5.7937,10.461
15.2490,-0.8367,-5.4115,-8.7168,10.294
15.2600,-2.6528,-2.4051,-14.6273,15.059
15.2620,-2.6294,-2.5506,-14.9416,15.384
15.2720,-5.2466,2.0823,-19.1407,19.956
15.2800,-6.2944,3.0258,-17.1803,18.546
15.2900,-5.6936,3.0592,-10.2009,12.076
15.3000,-2.5094,2.2035,-3.6602,4.955
15.3280,3.2299,2.7273,-0.2908,4.237
15.3290,5.0889,2.4527,0.9562,5.730
15.3320,6.7799,2.8568,2.2196,7.685
15.3420,7.9567,3.2926,2.7926,9.053
15.3490,8.3775,4.6743,3.2722,10.136
15.3610,8.2633,5.6336,3.8932,10.732
15.3730,7.1800,6.5693,5.1403,11.006
15.3800,6.8674,6.8989,3.9450,10.503
15.3940,7.1193,6.0652,0.4154,9.362
15.4000,6.4033,4.5814,-1.8946,8.098
15.4100,5.2954,2.5446,-3.8242,7.010
15.4210,6.0493,0.9415,-5.7678,8.411
15.4290,6.8208,-0.7680,-6.9495,9.768
15.4430,5.4689,-1.8833,-5.8478,8.225
15.4500,4.0079,-1.9346,-4.2873,6.180
15.4630,2.2669,-1.3757,-3.2692,4.209
15.4710,0.4058,-0.9004,-3.0399,3.196
15.4840,-1.7467,-0.8440,-2.5430,3.198
15.4920,-3.8449,-0.9389,-1.8371,4.363
15.5120,-5.6060,-0.8327,-0.2888,5.675
15.5130,-5.9446,-0.3254,1.0708,6.049
15.5210,-5.1377,-0.2154,1.3062,5.306
15.5300,-3.6958,-0.8209,1.5853,4.104
15.5420,-3.5016,-2.0242,3.4633,5.325
15.5490,-3.1934,-3.2324,5.2231,6.923
15.5640,-0.4011,-3.6666,5.9709,7.018
15.5740,1.4001,-3.3488,4.5514,5.822
15.5800,2.0368,-3.8822,2.8680,5.239
15.5910,2.7002,-8.6554,4.0436,9.928
15.6000,1.1267,-22.0059,5.6415,22.745
15.6150,1.4061,-23.9878,0.9978,24.050
15.6380,10.3964,-8.3657,-8.0573,15.588
15.6400,13.2296,-0.4480,-12.8328,18.437
15.6410,13.2931,2.3928,-12.9897,18.739
15.6490,11.7748,2.5005,-10.5911,16.033
15.6600,9.3305,0.8638,-7.5045,12.005
15.6700,8.1582,-0.7562,-5.0600,9.630
15.7020,7.0248,-2.3004,-2.1961,7.711
15.7030,6.0372,-3.4540,0.1466,6.957
15.7040,5.7737,-3.4531,2.8406,7.303
15.7120,5.5911,-2.4254,4.5951,7.633
15.7210,6.5662,-0.9698,6.8059,9.507
15.7340,7.2018,-0.2541,7.1142,10.126
15.7410,7.9468,-0.0528,8.2489,11.454
15.7490,8.4463,1.4280,3.6570,9.314
15.7610,7.3313,2.0864,-2.6124,8.058
15.7680,4.5768,3.0220,-3.7320,6.634
15.7800,3.2768,3.3352,-4.9974,6.844
15.7890,2.8726,3.0414,-4.8721,6.422
15.8000,3.7866,3.1197,-3.0200,5.761
15.8090,4.2577,3.1977,-0.8249,5.388
15.8280,4.1012,2.9442,-0.5807,5.082
15.8330,4.6916,2.1916,-2.7441,5.860
15.8600,4.7403,1.3335,-5.0375,7.044
15.8640,4.1857,0.7813,-4.0248,5.859
15.8670,3.4003,0.7371,-1.0120,3.623
15.8700,1.2926,0.4224,2.5660,2.904
15.8820,-0.3845,0.0911,3.6068,3.628
15.8930,-0.9920,-0.4804,1.5638,1.913
15.8990,-0.4850,-1.3003,-0.0937,1.391
15.9130,0.8169,-2.0830,-0.9052,2.414
15.9240,-0.0973,-1.8718,0.1164,1.878
15.9280,-1.6038,-0.4408,3.1027,3.520
15.9420,-2.6385,1.3706,3.9906,4.976
15.9490,-1.5096,3.2729,3.8288,5.258
15.9740,-0.3237,3.5802,3.7264,5.178
15.9810,-0.4316,2.6427,3.8543,4.693
15.9810,-1.7031,1.1374,4.1884,4.662
16.0040,-1.9680,0.4112,4.1626,4.623
16.0040,-2.3401,0.4126,2.5396,3.478
16.0130,-3.5821,-0.4678,2.8745,4.617
16.0210,-3.5932,-1.0803,2.5700,4.548
16.0310,-3.1213,-0.5282,2.5639,4.074
16.0410,-2.0689,1.5108,2.6800,3.708
16.0490,-2.2331,3.0092,3.8801,5.394
16.0610,-3.0933,4.1940,4.1636,6.670
16.0690,-4.0924,4.8241,1.7694,6.569
16.0840,-3.8621,5.2423,-0.5974,6.539
16.0950,-3.7966,4.7672,-1.8727,6.376
16.1200,-3.0707,3.6480,-2.3775,5.328
16.1210,-1.9407,1.8441,-1.7978,3.225
16.1220,2.6751,-4.1619,-0.4465,4.968
16.1290,11.7471,-12.1042,0.8778,16.890
16.1450,14.2184,-20.1450,0.6902,24.667
16.1510,14.4307,-20.2392,0.5675,24.863
16.1600,0.8038,-24.9063,-6.2192,25.684
16.1720,1.0413,-17.3752,-8.1982,19.240
16.1800,1.2134,-10.6417,-7.3956,13.016
16.1950,0.2118,-6.7342,-6.8884,9.636
16.2000,-0.8590,-3.0793,-8.0537,8.665
16.2200,-2.5431,-0.0169,-10.5725,10.874
16.2220,-3.3084,1.6003,-17.5226,17.904
16.2410,-2.4134,1.4877,-19.5085,19.713
16.2420,-0.9838,2.0624,-17.2667,17.417
16.2490,-0.3686,2.2773,-13.4082,13.605
16.2590,0.1945,2.5381,-8.5684,8.939
16.2690,0.9792,2.7407,-2.8877,4.100
16.2810,1.4648,3.9938,1.4993,4.510
16.3010,2.3575,4.5184,5.4978,7.497
16.3100,4.4209,5.3806,8.9820,11.365
16.3130,5.9886,5.2119,9.5080,12.387
16.3210,7.0532,5.2663,8.2846,12.088
16.3290,8.5301,4.7913,4.9523,10.966
16.3420,8.6910,3.2313,0.7597,9.303
16.3490,6.8737,0.4239,-5.4419,8.777
16.3680,4.9816,-1.9147,-9.8647,11.216
16.3830,3.9566,-3.7783,-12.3331,13.492
16.3860,2.9285,-4.3423,-11.2688,12.426
16.3950,2.9088,-3.2886,-8.9076,9.931
16.4060,2.3185,-2.0517,-6.5748,7.267
16.4100,1.2980,-0.4645,-4.4997,4.706
16.4190,0.3128,0.9082,-2.6914,2.858
16.4290,-1.1707,2.0635,-1.2202,2.668
16.4400,-2.5087,2.6267,-0.2233,3.639
16.4490,-4.1111,2.6974,1.5756,5.163
16.4600,-5.4296,2.3300,3.8698,7.063
16.5100,-7.0740,0.8863,4.8580,8.627
16.5190,-6.0537,0.2404,5.0210,7.869
16.5210,-4.3843,-0.9842,5.1833,6.860
16.5240,-2.9653,-2.3470,6.1489,7.219
16.5260,-1.3082,-3.0411,6.7376,7.507
16.5270,0.0521,-2.8666,4.9909,5.756
16.5330,1.1408,-4.7539,4.7681,6.829
16.5450,1.3458,-13.8211,5.6097,14.977
16.5490,2.3886,-28.4536,-1.7106,28.605
16.5750,8.0327,-27.1511,-9.9913,30.026
16.5780,12.9864,-10.5118,-21.9696,27.601
16.5830,12.6254,-0.5018,-25.4123,28.380
16.6140,11.9291,3.8972,-17.5336,21.562
16.6190,10.1823,3.9824,-10.6800,15.284
16.6200,9.5582,1.9778,-6.2885,11.611
16.6210,9.8067,-1.2327,-3.8322,10.601
16.6520,9.0860,-3.2510,-2.0791,9.871
16.6530,6.7333,-4.8321,1.1748,8.371
16.6540,5.4109,-4.7420,5.0063,8.765
16.6630,7.4997,-3.1028,7.9289,11.346
16.6690,6.9289,-2.8549,4.6014,8.794
16.6810,5.7598,-2.5960,5.5596,8.416
16.7020,7.2539,-0.4073,5.3219,9.006
16.7070,6.9489,1.0805,1.1879,7.132
16.7110,5.2447,1.6044,-1.9707,5.828
16.7220,4.2652,2.1176,-2.4783,5.368
16.7300,3.3661,2.1911,-2.6968,4.838
16.7420,2.2726,2.5258,-4.0653,5.298
16.7490,1.7082,2.8627,-3.9908,5.200
16.7600,1.5946,3.1420,-3.2185,4.772
16.7700,0.5549,3.0097,-2.3520,3.860
16.7850,0.3992,2.7508,-0.5709,2.838
16.7950,0.4921,2.3173,0.8614,2.521
16.8000,0.8269,1.2922,0.1957,1.547
16.8130,2.3052,-0.6009,-6.3811,6.811
16.8200,4.4434,-2.7466,-8.9147,10.332
16.8310,4.0028,-2.7626,-5.9837,7.711
16.8610,1.4965,-0.4966,-1.1107,1.929
16.8610,-0.7046,1.3182,2.1514,2.620
16.8620,-4.5979,1.8568,3.2415,5.924
16.8690,-9.1854,1.1348,3.5529,9.914
16.8800,-9.3299,1.1698,3.6761,10.096
16.8900,-9.0046,2.4348,4.5306,10.370
16.9000,-4.5582,4.1599,4.6168,7.707
16.9100,-2.8695,3.8301,4.6991,6.707
16.9200,-3.0259,1.5013,2.8144,4.397
16.9490,-3.3088,-1.1672,1.8111,3.949
16.9500,-3.4337,-1.8105,0.7624,3.956
16.9510,-3.8345,-0.6446,0.7064,3.952
16.9630,-4.1968,0.7427,0.4315,4.284
16.9700,-3.6962,1.8599,1.7105,4.477
16.9800,-3.1000,3.1252,3.7064,5.755
16.9940,-3.2912,4.2826,4.0318,6.740
17.0010,-3.9941,4.8567,1.3406,6.429
17.0100,-4.4564,5.1962,-2.0983,7.160
17.0210,-3.5819,5.0192,-3.9295,7.312
17.0550,-2.3056,3.8017,-5.6477,7.188
17.0560,-1.2576,0.3239,-4.3841,4.572
17.0570,3.7255,-9.8005,0.0618,10.485
17.0620,16.9858,-19.8420,1.0157,26.139
17.0690,23.9782,-29.5511,2.1445,38.116
17.0940,14.3633,-30.4627,3.9907,33.915
17.0980,7.7456,-27.4690,1.9528,28.607
17.1090,4.3949,-16.3808,-1.5598,17.032
17.1110,1.1000,-10.3194,-5.0187,11.528
17.1250,-3.2629,-7.3239,-13.2700,15.504
17.1290,-11.0797,-4.8715,-25.1922,27.949
17.1500,-14.4009,-1.0566,-31.1538,34.337
17.1510,-14.5873,1.6668,-32.2548,35.439
17.1600,-12.0967,1.5298,-23.1901,26.200
17.1690,-7.7122,1.4668,-14.2101,16.234
17.1800,-4.7802,1.3624,-8.7112,10.030
17.1990,-1.1247,1.1375,-4.4483,4.727
17.2000,2.8088,1.3655,3.4061,4.621
17.2110,5.1111,2.4367,11.1553,12.510
17.2190,8.1464,4.6618,17.6957,20.031
17.2300,9.4569,5.9151,17.6652,20.892
17.2450,11.6229,8.1104,12.9856,19.222
17.2510,12.5429,8.8712,7.2902,17.005
17.2630,11.9808,7.7461,0.2361,14.269
17.2700,7.5924,4.7432,-7.6841,11.798
17.2840,3.0614,1.3307,-14.5289,14.907
17.3230,0.9732,-0.8102,-14.6586,14.713
17.3250,1.9513,-2.4368,-13.0279,13.397
17.3270,2.9059,-3.0697,-10.4098,11.235
17.3300,2.8461,-2.9502,-7.6931,8.717
17.3310,2.5101,-2.6243,-5.9440,6.966
17.3420,1.5361,-2.0763,-4.3324,5.044
17.3490,0.4619,-1.4091,-3.0457,3.388
17.3610,-1.9497,-0.9374,-1.5336,2.652
17.3690,-4.8978,-0.8808,-0.0542,4.977
17.3820,-7.3427,-0.5998,1.9497,7.621
17.3900,-8.7893,-1.0598,3.0520,9.364
17.4170,-9.2130,-1.8889,3.1434,9.916
17.4180,-8.1158,-2.8739,2.2151,8.890
17.4190,-5.3283,-3.3426,1.6883,6.513
17.4290,-2.6239,-3.4312,2.2836,4.886
17.4410,-0.3039,-4.0039,2.0399,4.504
17.4490,0.9976,-8.7624,1.0123,8.877
17.4640,-1.0565,-21.2712,2.6325,21.460
17.4700,-1.4413,-30.7040,0.2924,30.739
17.4870,8.6786,-18.8099,-9.2578,22.690
17.5340,14.0656,-3.3164,-17.3604,22.588
17.5410,13.8272,2.9756,-19.4126,24.019
17.5440,13.4391,5.3306,-15.9178,21.503
17.5450,10.8443,4.0549,-12.1884,16.811
17.5470,8.8563,1.6644,-8.2335,12.206
17.5490,8.2161,0.0396,-5.6409,9.966
17.5500,6.5002,-1.8744,-3.0688,7.429
17.5690,5.1869,-3.3459,-1.9306,6.467
17.5690,4.5375,-4.3954,-0.0412,6.317
17.5990,4.2149,-5.1904,7.9613,10.397
17.6000,5.9085,-4.0653,6.8311,9.905
17.6010,4.9875,-3.4838,5.4092,8.141
17.6100,6.5380,-1.8054,7.6759,10.243
17.6210,8.8883,0.7991,3.7304,9.672
17.6570,7.4814,2.0571,-1.1955,7.851
17.6660,5.4102,2.8075,-2.5054,6.590
17.6670,3.8947,3.1540,-2.8447,5.763
17.6700,2.4110,3.0485,-4.1283,5.670
17.6720,1.0397,2.9458,-5.7890,6.578
17.6830,0.3333,2.8938,-6.5210,7.142
17.6890,-0.5817,2.6296,-7.0502,7.547
17.7000,-1.0076,2.2744,-6.0646,6.555
17.7270,-0.9206,2.0080,-4.3992,4.923
17.7280,-1.0588,2.0304,-4.3945,4.955
17.7300,1.5269,0.6887,-2.2236,2.784
17.7420,2.7136,-0.7054,-4.5460,5.341
17.7480,3.1317,-1.9089,-6.6120,7.561
17.7640,3.2234,-2.4549,-6.4142,7.587
17.7690,2.6385,-1.7144,-4.2364,5.277
17.7860,2.2612,-0.6679,-0.7274,2.467
17.7940,-0.3851,-0.0804,1.6276,1.674
17.8220,-3.2491,1.1990,4.4645,5.650
17.8240,-5.1353,2.3608,6.1438,8.348
17.8240,-5.5100,3.0685,5.9485,8.670
17.8290,-5.1195,2.5641,3.7797,6.861
17.8410,-4.0385,1.3241,1.1287,4.397
17.8510,-3.1627,0.6042,0.4245,3.248
17.8630,-3.8812,0.1601,0.6613,3.940
17.8690,-5.0099,-0.5582,1.5412,5.271
17.8800,-6.1941,-2.1009,1.1571,6.642
17.8890,-6.3455,-3.1438,1.3483,7.209
17.9280,-5.3563,-2.0578,2.0087,6.079
17.9310,-4.2233,0.1312,3.3861,5.415
17.9330,-4.6618,1.5612,4.4895,6.658
17.9360,-5.5325,2.1403,3.2922,6.784
17.9440,-5.6848,2.7067,0.6160,6.326
17.9500,-3.8772,3.1622,-0.6967,5.051
17.9600,-2.3689,2.9201,-2.3895,4.455
17.9700,-0.7549,1.6711,-3.1850,3.675
17.9800,3.8716,-2.5189,-1.9899,5.029
17.9890,11.5785,-7.9365,0.4577,14.045
18.0200,14.7737,-11.9117,1.9924,19.082
18.0210,11.7289,-16.4923,2.0305,20.339
18.0230,6.4771,-19.6591,0.9960,20.723
18.0470,5.0061,-16.9682,-0.4731,17.698
18.0500,2.4383,-12.3106,-2.7893,12.856
18.0530,-3.3133,-9.3880,-6.4541,11.865
18.0800,-6.0350,-6.7053,-16.4380,18.751
18.0840,-10.6047,-4.1399,-22.3980,25.125
18.0850,-13.1854,-1.9651,-23.4661,26.988
18.1070,-12.2522,-0.2339,-18.9922,22.603
18.1080,-7.3747,0.5057,-12.6751,14.673
18.1290,-7.2238,0.5034,-12.6247,14.554
18.1300,1.4218,0.7411,-4.0679,4.372
18.1310,3.2803,1.5660,-0.1923,3.640
18.1530,5.0938,2.4052,2.6402,6.221
18.1540,5.7274,3.6592,6.1935,9.195
18.1640,5.6252,5.0908,8.5078,11.399
18.1700,6.3997,6.4172,8.6213,12.509
18.1890,7.7190,6.9817,5.2886,11.675
18.2000,9.0853,5.7112,1.2407,10.803
18.2040,7.9811,3.6879,-2.8812,9.252
18.2180,7.2904,1.9478,-7.1215,10.376
18.2220,7.0146,0.8100,-9.8574,12.126
18.2340,6.0937,-0.6324,-9.6877,11.462
18.2440,4.5423,-1.3897,-8.1368,9.422
18.2520,2.9982,-1.6199,-6.0056,6.905
18.2670,1.5473,-1.0809,-4.5466,4.923
18.2720,0.4119,-0.5978,-4.1545,4.217
18.3040,-1.6755,-0.3038,-3.9732,4.323
18.3120,-3.9139,-0.0627,-3.5557,5.288
18.3140,-5.6578,0.1146,-2.0787,6.029
18.3150,-5.9346,0.2179,-0.5443,5.963
18.3200,-4.4001,-0.1763,0.7244,4.463
18.3300,-3.2347,-1.1346,2.5723,4.286
18.3400,-2.9373,-2.5682,4.3187,5.820
18.3490,-2.2705,-3.8539,5.1227,6.801
18.3660,-0.1960,-4.4475,5.1078,6.776
18.3690,1.7367,-4.0834,3.6823,5.766
18.4050,2.7613,-4.1047,1.7747,5.256
18.4110,2.1881,-9.2266,4.7660,10.613
18.4130,-0.6280,-23.4562,5.8015,24.171
18.4140,2.6176,-22.8292,-3.6357,23.265
18.4260,11.1717,-8.0655,-11.9582,18.244
18.4620,13.9179,-2.3956,-15.8344,21.217
18.4630,14.0841,-0.3338,-15.2550,20.765
18.4640,12.4190,0.2465,-11.5413,16.956
18.4650,10.1919,0.3574,-6.9146,12.321
18.4910,8.6393,-0.1008,-4.3099,9.655
18.4910,6.6765,-1.3792,-2.4645,7.249
18.4920,4.9570,-2.3805,-1.2484,5.639
18.5000,3.8577,-2.5836,1.0815,4.767
18.5120,4.3292,-1.7801,3.7293,5.985
18.5200,5.3653,-1.1349,5.7427,7.941
18.5340,6.0208,-0.6559,4.6709,7.648
18.5860,7.0544,-0.6638,6.4043,9.551
18.5910,8.9057,1.0997,5.6071,10.581
18.5940,8.2435,2.4703,1.9391,8.821
18.5970,6.2524,3.1306,-1.4268,7.136
18.6000,4.8099,3.7370,-2.2435,6.491
18.6050,2.9838,3.3813,-4.1602,6.135
18.6080,1.7214,3.0041,-4.9237,6.019
18.6150,1.0017,2.9148,-6.4105,7.113
18.6200,1.4962,2.9667,-7.4753,8.180
18.6300,2.7844,2.6818,-7.6676,8.587
18.6400,3.6342,2.0718,-5.7629,7.121
18.6680,3.4776,1.4298,-3.4561,5.107
18.6690,2.5756,0.7829,-1.7129,3.191
18.6700,1.2669,0.1207,0.4715,1.357
18.6810,0.3084,-0.4198,1.3220,1.421
18.6900,0.2385,-0.9808,0.8749,1.336
18.7060,0.6378,-1.6084,0.5477,1.815
18.7150,-1.0487,-1.9121,-0.6627,2.279
18.7390,-1.2159,-1.8730,-0.5729,2.305
18.7400,-4.0537,0.7458,3.4468,5.373
18.7400,-3.9318,2.7950,5.1505,7.057
18.7490,-3.0075,3.7836,4.6724,6.722
18.7640,-2.7877,3.2401,3.6606,5.628
18.7710,-2.6671,2.0135,3.7771,5.043
18.8060,-1.4270,2.1795,4.2486,4.984
18.8070,-3.8234,1.0977,3.5330,5.320
18.8080,-5.4403,0.1442,3.0337,6.231
18.8180,-6.1561,0.2112,2.9789,6.842
18.8270,-5.1993,2.0917,3.0281,6.370
18.8330,-4.5803,3.5894,3.3913,6.735
18.8490,-4.2804,4.0476,3.1765,6.693
18.8500,-4.2506,3.7278,1.2380,5.788
18.8630,-3.7867,3.8329,-2.1901,5.816
18.8690,-2.7146,3.5928,-4.3453,6.258
18.9020,1.0284,1.2711,-3.3851,3.759
18.9030,10.0813,-5.4934,0.1087,11.481
18.9030,19.5751,-13.3899,4.1592,24.078
18.9220,14.4210,-18.9481,4.2906,24.195
18.9360,7.2454,-24.6339,1.2788,25.709
18.9390,3.3912,-27.8761,1.8472,28.142
18.9420,-1.4890,-23.1369,-0.7829,23.198
18.9570,-1.7506,-15.2302,-5.4068,16.256
18.9660,-4.7826,-10.7267,-10.7665,15.933
18.9690,-6.1541,-6.9138,-16.6508,19.051
18.9800,-6.9765,-2.8131,-22.4775,23.703
18.9890,-7.6235,0.0650,-24.3515,25.517
19.0170,-8.2463,0.4591,-22.7936,24.244
19.0180,-4.1977,0.7678,-18.2220,18.715
19.0200,0.0769,1.0355,-10.5590,10.610
19.0350,1.8035,1.4246,-4.4620,5.019
19.0450,3.6707,1.8356,0.6238,4.151
19.0540,5.1003,2.2395,2.8168,6.242
19.0660,7.0411,2.8141,5.0274,9.098
19.0700,7.7947,4.3226,7.1326,11.416
19.0820,7.1523,6.0912,9.0666,13.056
19.0900,6.3806,7.7604,9.1421,13.584
19.1320,7.9345,8.7837,5.0489,12.869
19.1360,8.8636,7.1518,-0.6506,11.408
19.1400,7.6811,5.0072,-4.1338,10.058
19.1480,6.7064,3.0962,-7.1553,10.284
19.1510,6.9274,1.9533,-8.0204,10.776
19.1540,6.8107,0.4297,-7.6275,10.235
19.1610,6.4172,-1.0260,-7.0936,9.620
19.1690,4.7170,-1.8886,-6.7028,8.411
19.1820,2.6950,-2.2028,-5.8840,6.836
19.1900,0.2665,-2.3518,-4.9359,5.474
19.2010,-1.7971,-2.6722,-4.1071,5.219
19.2090,-4.4832,-3.2258,-2.6527,6.127
19.2360,-6.6649,-3.6968,-0.2602,7.626
19.2410,-7.0506,-4.2633,2.0862,8.499
19.2440,-5.6714,-4.9994,2.5734,7.986
19.2520,-3.5615,-5.4096,2.8443,7.074
19.2640,-2.1128,-5.8628,3.8072,7.303
19.2690,0.2648,-6.1932,5.3078,8.161
19.2810,1.0437,-7.9172,5.4039,9.642
19.2890,1.1833,-14.4691,4.8259,15.298
19.3020,-0.0811,-24.5628,6.2676,25.350
19.3100,6.1990,-21.4176,2.6470,22.453
19.3510,14.0697,-7.9934,-7.9986,18.051
19.3580,14.7141,1.4569,-13.9844,20.352
19.3630,14.2050,5.2138,-12.8201,19.832
19.3650,13.7686,6.7740,-11.3394,19.080
19.3680,12.1492,4.9623,-10.5675,16.849
19.3710,10.1108,2.0255,-7.6496,12.839
19.3840,8.1551,-0.3906,-4.6100,9.376
19.3890,6.2065,-2.5546,-1.3688,6.850
19.4230,3.8490,-4.3681,0.3189,5.831
19.4240,3.0944,-4.4464,1.0964,5.527
19.4250,3.8938,-2.6327,4.0420,6.199
19.4340,4.1383,-1.0771,5.2722,6.788
19.4400,3.9781,-0.0360,6.2283,7.390
19.4730,3.9478,0.7815,7.7168,8.703
19.4820,5.1552,2.5464,6.6134,8.763
19.4840,4.7553,3.5368,2.3692,6.382
19.4860,3.8215,4.1315,-0.6034,5.660
19.4940,2.4297,3.9871,-3.2819,5.707
19.5010,0.6390,3.7148,-6.3261,7.364
19.5100,0.3972,3.6589,-8.1499,8.942
19.5240,3.0026,3.3289,-11.1618,12.028
19.5830,3.8697,3.2372,-5.7546,7.653
19.5960,4.4657,2.8927,-2.7373,5.984
19.6040,4.9909,2.0461,-1.7241,5.663
19.6060,3.6504,0.2841,-1.4143,3.925
19.6120,1.3832,-1.2800,0.0788,1.886
19.6130,-0.0041,-2.1537,0.6857,2.260
19.6140,-0.7115,-2.3901,0.5933,2.563
19.6140,-0.4977,-2.7723,-0.5214,2.864
19.6150,0.4143,-2.7217,-1.3383,3.061
19.6210,1.1808,-2.3573,0.2505,2.648
19.6340,-0.1191,-1.2357,2.5564,2.842
19.6400,-2.8969,0.6766,5.1550,5.952
19.6890,-4.9745,2.4214,6.0395,8.191
19.7000,-5.5015,3.0087,5.3500,8.243
19.7030,-3.8665,2.1014,4.0468,5.978
19.7060,-2.2999,0.9484,4.0515,4.754
19.7090,-1.5258,0.2204,4.2447,4.516
19.7130,-3.5927,-0.5610,3.4155,4.989
19.7160,-5.1988,-0.9198,2.6567,5.910
19.7240,-4.5265,-0.4612,2.8393,5.363
19.7350,-2.8758,3.0785,5.2178,6.706
19.7390,-2.9553,4.0559,4.3659,6.652
19.7880,-3.2827,3.9811,1.6975,5.432
19.7900,-3.2793,3.6422,-0.3131,4.911
19.8050,-3.4543,2.6250,-1.4280,4.567
19.8090,-2.3863,2.0154,-1.4937,3.462
19.8160,1.0118,-0.7264,-0.6819,1.420
19.8160,7.7565,-6.8685,0.3928,10.368
19.8170,13.2945,-13.1475,0.4853,18.704
19.8250,10.9791,-16.5432,-1.0836,19.884
19.8560,7.4381,-18.9524,-3.5168,20.661
19.8650,4.7521,-18.5962,-2.9715,19.422
19.8660,4.0543,-13.5318,-2.0117,14.269
19.8740,2.9779,-8.8786,-2.4089,9.670
19.8740,1.1600,-5.8720,-3.4177,6.893
19.8860,-0.6715,-4.0155,-6.3486,7.542
19.9190,-2.1044,-1.7803,-15.4126,15.657
19.9310,-1.9415,-0.6558,-18.8405,18.952
19.9350,-2.0611,0.4392,-18.6814,18.800
19.9380,-2.0427,1.5264,-16.5768,16.772
19.9410,-2.3411,2.2506,-11.6800,12.123
19.9440,-0.4455,3.0094,-8.4012,8.935
19.9500,0.9958,3.0839,-5.3111,6.222
19.9920,2.8083,3.1563,-1.5136,4.488
19.9930,3.6952,3.4166,2.1727,5.482
19.9940,4.2670,4.3393,6.7336,9.076
19.9950,5.5743,4.9789,9.5693,12.142
20.0370,6.9818,5.7370,11.1123,14.323
20.0450,8.5761,6.1931,9.3820,14.140
20.0490,10.0167,5.6163,5.1806,12.598
20.0510,10.3476,4.0665,0.4985,11.129
20.0530,8.4129,1.2136,-6.4749,10.685
20.0550,5.9391,-1.0588,-9.8892,11.584
20.0610,4.7598,-2.9088,-11.3675,12.662
20.0720,3.1950,-3.6211,-9.2095,10.399
20.1170,2.1817,-2.8994,-6.2983,7.269
20.1180,0.9958,-1.9891,-4.5327,5.049
20.1180,-1.0003,-1.3706,-3.3486,3.754
20.1190,-2.4947,-0.9217,-2.0262,3.343
20.1200,-4.2441,-0.5754,-0.2385,4.290
20.1300,-5.7847,-0.9410,1.0512,5.954
20.1410,-6.0332,-1.9337,1.9354,6.625
20.1500,-5.5906,-3.2320,3.0267,7.132
20.1620,-4.7539,-4.7021,4.4629,8.039
20.1710,-2.5651,-5.4078,4.4176,7.439
20.1860,0.7984,-4.4861,4.6889,6.538
20.1910,3.8291,-3.5115,4.2422,6.707
20.2100,5.2692,-4.3673,3.2361,7.570
20.2160,5.1158,-11.2546,4.3555,13.108
20.2740,3.8575,-20.7914,5.1999,21.776
20.2840,9.5346,-15.2393,-0.2379,17.978
20.2870,11.8340,-4.6553,-6.5267,14.294
20.2930,9.5023,-0.2810,-10.1390,13.899
20.2960,7.9940,0.9165,-9.7561,12.646
20.2980,6.5834,1.1594,-9.4606,11.584
20.3000,5.8192,0.7396,-9.1493,10.868
20.3020,5.3687,-0.0309,-7.5742,9.284
20.3030,5.0162,-0.7781,-5.1429,7.226
20.3180,4.7949,-1.3516,-2.2710,5.475
20.3200,5.3778,-1.0324,-0.3384,5.486
20.3560,6.3235,-0.2283,2.0638,6.656
20.3570,6.6255,0.2049,5.8503,8.841
20.3570,8.0404,0.6325,8.4660,11.693
20.3600,8.3878,0.4346,8.2322,11.761
20.3710,7.5111,0.7320,8.6070,11.447
20.4050,6.4798,1.9783,4.9944,8.417
20.4250,4.6149,2.5597,0.5642,5.307
20.4270,3.2787,2.7683,-1.6884,4.611
20.4350,1.8010,2.9136,-3.9472,5.226
20.4380,0.8619,2.9198,-6.0459,6.769
20.4420,-0.1040,2.6989,-8.3125,8.740
20.4420,1.4160,2.0741,-8.1733,8.550
20.4490,3.2001,1.9549,-3.7745,5.321
20.4600,4.3143,1.6962,-1.2697,4.806
20.4700,4.5569,0.9498,0.0820,4.656
20.4840,3.3630,-0.1779,-0.1264,3.370
20.4900,1.1935,-0.4083,0.0593,1.263
20.5520,0.6232,0.3382,2.3195,2.425
20.5610,-0.6451,1.0866,2.8595,3.126
20.5700,0.1610,1.0439,3.0154,3.195
20.5720,-0.8840,0.1889,1.0208,1.363
20.5750,0.1086,-0.6853,-0.1945,0.721
20.5760,-0.8421,-0.7348,0.1888,1.133
20.5790,-3.5680,0.0687,3.2572,4.832
20.5840,-5.5416,1.4628,5.0903,7.666
20.5850,-4.2815,2.8790,5.9728,7.893
20.5910,-4.2920,2.8869,6.0211,7.938
20.6020,-0.2662,1.7496,4.6248,4.952
20.6580,0.1967,0.5647,5.3402,5.374
20.6670,-0.8402,0.2205,5.4283,5.497
20.6700,-3.3860,-0.3808,4.8434,5.922
20.6720,-5.5311,-0.9875,4.1159,6.965
20.6740,-5.3932,0.2064,5.0383,7.383
20.6750,-4.1993,2.6175,5.5125,7.408
20.6770,-4.8645,3.0242,3.7821,6.864
20.6810,-5.9472,2.4070,1.7895,6.661
20.6890,-6.5434,1.0325,0.1481,6.626
20.7010,-5.6011,0.0507,-1.0086,5.691
20.7090,-3.3253,-0.9341,-0.8974,3.569
20.7410,3.0797,-6.0900,-0.0702,6.825
20.7420,10.2814,-11.4007,1.2144,15.400
20.7430,10.8620,-14.3461,0.0748,17.994
20.7640,8.2277,-15.4472,-3.3190,17.814
20.7730,7.1182,-15.2745,-3.8920,17.295
20.7740,5.8838,-12.3285,-2.6388,13.913
20.7950,4.8783,-8.3741,-1.1811,9.763
20.7960,3.0777,-5.2524,-1.7286,6.328
20.8020,1.3995,-3.5136,-2.7216,4.660
20.8090,-0.2055,-2.6146,-4.9170,5.573
20.8200,-0.6139,-1.7336,-8.1755,8.380
20.8480,-1.4721,-0.5402,-12.3159,12.415
20.8590,-1.6012,0.4965,-15.4246,15.515
20.8610,-1.8763,2.1919,-14.3939,14.680
20.8630,-2.5325,3.3570,-12.3049,13.004
20.8840,-1.2273,3.5845,-10.4841,11.148
20.8890,0.4364,3.7031,-7.2867,8.185
20.8900,1.7465,3.9827,-2.2405,4.892
20.9020,2.7831,4.2548,1.7367,5.373
20.9100,4.4056,4.4384,5.9062,8.602
20.9200,5.9491,4.6955,8.7498,11.576
20.9290,7.7879,4.7416,10.4467,13.866
20.9560,9.6087,4.8421,10.0936,14.753
20.9590,10.8368,4.7275,7.5810,14.045
20.9630,11.5359,4.3068,3.1232,12.704
20.9700,10.0599,1.6402,-5.1825,11.435
20.9820,6.9872,-1.0867,-11.4001,13.415
20.9930,3.6256,-2.9736,-10.4373,11.442
21.0010,1.6334,-2.9843,-7.7382,8.453
21.0470,0.9264,-1.3085,-5.6797,5.902
21.0480,0.0438,-0.0673,-4.2723,4.273
21.0490,-1.5415,0.5640,-3.1483,3.550
21.0500,-3.4923,0.2111,-2.0393,4.050
21.0510,-5.2691,-0.3036,-0.0387,5.278
21.0600,-6.6008,-1.4011,2.2361,7.109
21.0710,-7.1112,-3.0397,3.8179,8.625
21.0820,-6.9295,-5.2664,4.6095,9.849
21.0900,-4.9081,-6.3401,4.8147,9.352
21.1030,-0.7128,-5.4859,5.1124,7.533
21.1090,2.3793,-4.2636,5.2587,7.176
21.1550,3.9923,-4.6652,3.5175,7.076
21.1560,4.1448,-10.2899,3.9940,11.790
21.1560,2.6377,-21.7702,5.3697,22.577
21.1570,5.7058,-18.2910,1.5583,19.224
21.1610,12.2291,-3.1939,-7.5999,14.748
21.1750,12.0078,2.1817,-11.0815,16.485
21.1840,10.9132,3.8406,-11.2381,16.129
21.1970,8.3069,2.4943,-9.8848,13.150
21.2020,6.2784,0.1502,-7.8188,10.029
21.2090,5.7374,-1.3880,-6.6546,8.895
21.2220,5.4362,-2.4890,-3.9038,7.141
21.2300,4.8687,-3.2223,-1.2918,5.980
21.2410,5.2947,-2.5739,0.1588,5.889
21.2820,5.8482,-1.4991,3.4346,6.946
21.2830,6.8767,-0.3600,6.9058,9.752
21.2840,7.0527,0.5014,8.2479,10.864
21.2850,6.7905,0.9834,8.8010,11.160
21.2890,7.7257,1.9491,8.1788,11.418
21.3020,6.6094,2.8412,4.0108,8.237
21.3090,4.9339,2.8575,0.8164,5.760
21.3310,4.7584,2.8923,0.6997,5.612
21.3360,1.8980,2.8769,-3.1689,4.682
21.3410,0.8847,2.6307,-2.8774,3.998
21.3700,0.4111,2.2822,-2.1572,3.167
21.3700,0.1638,2.2813,-1.8627,2.950
21.3710,0.6194,2.2145,-1.4041,2.694
21.3850,1.5070,1.6249,-3.1725,3.870
21.3890,4.0959,0.8192,-5.9290,7.253
21.4030,4.8979,0.0057,-4.6380,6.745
21.4100,4.4099,-0.9220,-1.7964,4.850
21.4590,2.4092,-1.2272,0.6465,2.780
21.4620,0.5098,-1.5848,3.0335,3.460
21.4700,-0.0785,-0.9669,1.9418,2.171
21.4730,-0.6372,-0.2002,0.6645,0.942
21.4760,1.0670,-0.1365,1.0333,1.492
21.4780,0.0295,-0.6854,1.8679,1.990
21.4850,-2.5661,-0.3097,3.3675,4.245
21.4910,-5.0155,1.5651,5.2930,7.458
21.5010,-4.8434,3.7282,6.5164,8.934
21.5090,-3.8971,4.5835,5.9977,8.495
21.5210,-2.4907,3.7564,5.5579,7.156
21.5290,-1.3043,2.3930,5.4029,6.051
21.5720,-2.6207,1.0596,4.5919,5.392
21.5730,-4.1263,-0.1305,3.9998,5.748
21.5740,-4.4240,-0.5116,4.7998,6.548
21.5740,-4.8031,0.1344,4.2832,6.437
21.5840,-3.5607,2.2283,4.5542,6.196
21.5910,-4.3029,3.2530,3.7003,6.541
21.6020,-3.1862,3.9403,2.4757,5.640
21.6120,-3.6267,2.8266,0.6524,4.644
21.6530,-3.5270,1.1838,-0.6829,3.783
21.6590,-1.7709,0.0613,-0.8953,1.985
21.6590,3.1266,-5.0364,-0.8467,5.988
21.6600,12.0652,-12.0597,0.5487,17.068
21.6610,13.9431,-16.9419,1.5418,21.996
21.6690,9.1396,-19.1580,-0.4187,21.231
21.6800,4.8441,-18.8298,-3.1759,19.701
21.7160,2.0511,-15.6034,-4.4534,16.356
21.7170,1.1302,-10.2392,-5.6367,11.743
21.7180,-0.5006,-6.4673,-5.7513,8.669
21.7230,-0.8694,-4.2519,-8.2472,9.319
21.7360,-1.4865,-2.1432,-11.4075,11.702
21.7540,-1.5286,0.2451,-14.0723,14.157
21.7590,-1.4123,0.1393,-14.2164,14.287
21.8020,-1.1020,1.9598,-14.9366,15.105
21.8040,-1.2109,2.5447,-13.6275,13.916
21.8060,-0.1651,3.4645,-10.5967,11.150
21.8090,1.0128,4.3040,-7.0491,8.321
21.8110,2.2387,5.0191,-2.5015,6.038
21.8130,3.8653,5.7278,1.7811,7.136
21.8230,4.7047,6.4030,7.2753,10.773
21.8340,5.5186,6.5192,10.4412,13.490
21.8550,6.4496,6.3323,11.8033,14.867
21.8560,7.0970,5.9402,11.2405,14.560
21.8600,8.1413,4.8655,8.0912,12.467
21.8790,7.7934,2.5308,2.4693,8.558
21.9250,6.0337,-0.5999,-6.0600,8.573
21.9260,4.4513,-3.5344,-11.8415,13.135
21.9280,3.2533,-5.4563,-12.1518,13.712
21.9290,3.0710,-5.3130,-9.3587,11.191
21.9300,3.8857,-3.3719,-7.0248,8.707
21.9310,3.0623,-1.3133,-4.3117,5.449
21.9520,2.2410,0.3025,-3.5713,4.227
21.9540,0.3536,1.6045,-2.5640,3.045
21.9600,-1.6669,2.1517,-1.8153,3.272
21.9910,-3.9298,2.2809,-0.9009,4.632
21.9920,-6.3838,1.7504,0.5234,6.640
21.9930,-8.1145,0.5152,2.8672,8.622
22.0000,-9.7845,-1.3620,5.7710,11.441
22.0090,-10.1549,-3.4990,7.9443,13.359
22.0200,-7.0336,-4.3363,7.2807,11.013
22.0290,-1.5601,-3.6539,7.0681,8.108
22.0610,1.2382,-3.0172,5.8670,6.713
22.0700,3.1552,-4.9242,3.2257,6.679
22.0730,4.5726,-13.3020,6.5108,15.500
22.0750,6.0292,-25.3488,6.0351,26.746
22.1110,12.9515,-18.4943,-5.0648,23.139
22.1130,14.1249,-4.1423,-15.7624,21.567
22.1130,13.4063,1.6183,-21.1827,25.121
22.1150,11.6147,3.4416,-17.4865,21.273
22.1430,7.7687,1.8771,-12.2297,14.610
22.1450,5.6282,-0.5270,-7.4734,9.370
22.1450,4.6564,-2.2931,-4.1668,6.656
22.1890,3.6213,-3.5230,-0.7422,5.107
22.1960,2.6685,-3.5893,1.7012,4.785
22.2080,3.2324,-2.3491,2.9021,4.939
22.2110,5.8815,-0.4414,3.8256,7.030
22.2130,7.4098,-0.0468,8.8892,11.573
22.2160,7.2694,0.3953,7.0449,10.131
22.2160,7.4702,0.7278,8.8467,11.602
22.2250,8.0140,1.6350,11.0823,13.774
22.2290,7.6532,2.9623,7.5149,11.127
22.2420,5.5262,3.3103,3.9226,7.542
22.2760,3.9016,3.4206,1.5027,5.402
22.2760,2.7841,3.3742,-1.1731,4.529
22.2770,1.7045,2.7428,-4.4574,5.504
22.2790,0.2563,1.9779,-8.4667,8.698
22.2890,0.3990,1.3765,-12.1068,12.191
22.3220,2.4423,1.4743,-7.9301,8.428
22.3230,4.1255,1.8522,-3.3254,5.613
22.3240,4.8606,1.6010,0.1782,5.121
22.3290,4.2487,0.8753,1.4352,4.569
22.3600,2.3136,0.2053,1.6754,2.864
22.3610,0.9333,-0.0582,2.1971,2.388
22.3620,-0.6183,-0.4324,1.7899,1.942
22.3710,-2.3293,-0.7452,1.0746,2.671
22.3800,-2.4002,-1.0094,0.9587,2.775
22.3900,-2.7710,-1.3092,1.6105,3.462
22.4100,-3.2534,-0.6220,2.7004,4.274
22.4170,-3.7811,0.8116,4.5404,5.964
22.4630,-3.7921,2.5003,5.6372,7.239
22.4640,-2.9078,3.3439,5.4641,7.035
22.4650,-2.3369,2.9072,5.1459,6.356
22.4660,-1.5209,2.6146,4.4993,5.422
22.4670,-3.2008,1.4226,4.3479,5.583
22.4720,-5.3197,0.8238,3.7621,6.567
22.4820,-6.5462,0.5874,3.5774,7.483
22.4900,-6.2037,0.7353,3.2820,7.057
22.5140,-4.3593,2.0979,4.3808,6.527
22.5210,-2.7753,3.6177,5.6689,7.275
22.5230,-3.0252,3.8433,5.4291,7.307
22.5580,-3.2553,3.7331,3.3635,5.987
22.5580,-2.6997,3.9392,0.4959,4.801
22.5590,-1.8055,3.7111,-1.9455,4.563
22.5600,0.2851,2.6929,-2.3403,3.579
22.5690,6.4420,-2.7896,-0.3893,7.031
22.5800,17.6772,-10.0282,3.4289,20.611
22.5920,17.0401,-15.8662,5.1212,23.840
22.6480,9.1584,-20.0607,2.8503,22.236
22.6540,2.3403,-23.5758,-0.2683,23.693
22.6550,-0.2475,-22.1356,-2.6068,22.290
22.6570,-1.7774,-15.8918,-4.4075,16.587
22.6590,-2.7709,-11.3651,-6.9886,13.627
22.6610,-2.7785,-7.1703,-11.3490,13.709
22.6630,-2.8794,-3.2215,-16.4036,16.963
22.6890,-3.0692,0.0093,-20.3427,20.573
22.6900,-3.8658,1.3444,-21.4108,21.798
22.6900,-3.7738,2.1037,-18.1090,18.617
22.7280,-2.7039,2.2493,-11.4125,11.942
22.7300,-0.5941,2.1652,-6.0009,6.407
22.7310,1.8772,2.3537,-2.6433,4.006
22.7310,2.8630,3.5648,2.6960,5.308
22.7400,3.8640,4.4814,5.3630,7.986
22.7780,4.6634,5.0423,7.3675,10.072
22.7840,5.4667,6.1070,10.1129,13.017
22.7900,6.7743,6.7458,10.6881,14.340
22.7940,9.2510,6.7260,9.1715,14.661
22.7970,10.7566,5.6409,6.2386,13.654
22.8120,10.8402,3.3433,0.3445,11.349
22.8130,8.8710,1.3549,-5.2262,10.385
22.8230,7.4302,-0.4673,-10.8978,13.198
22.8290,7.0702,-1.7535,-11.5853,13.685
22.8470,5.1887,-2.6219,-9.0367,10.745
22.8620,3.7159,-2.3767,-6.5904,7.930
22.8630,2.1375,-1.8743,-5.5753,6.258
22.8740,0.3907,-1.2944,-4.9612,5.142
22.8800,-1.8468,-0.6746,-3.7067,4.196
22.8900,-4.1826,-0.3475,-1.9559,4.630
22.9060,-7.3055,-0.3992,1.5695,7.483
22.9090,-8.0134,-0.4229,2.4060,8.377
22.9430,-7.3505,-1.2023,2.8104,7.961
22.9440,-4.7563,-2.3660,3.3740,6.293
22.9440,-4.7462,-2.2988,3.6043,6.388
22.9560,-0.0890,-4.6027,4.2715,6.280
22.9610,1.3571,-4.9646,4.6730,6.952
22.9740,2.2267,-4.7229,3.9647,6.556
22.9810,3.2351,-5.0825,3.2248,6.833
22.9930,3.4979,-10.8721,10.1088,15.252
23.0180,4.3622,-21.5735,7.9982,23.418
23.0190,10.5979,-15.6005,-5.6939,19.701
23.0750,12.7038,-4.3891,-12.1296,18.105
23.0790,12.3212,0.6116,-14.2035,18.813
23.0810,11.4902,1.9303,-13.2432,17.639
23.0840,9.2069,1.5696,-10.4972,14.051
23.0870,7.7214,0.9872,-7.4946,10.806
23.0890,6.0087,0.0034,-4.2239,7.345
23.0900,4.6824,-1.2748,-2.5694,5.491
23.0930,3.6123,-2.2289,-1.1294,4.392
23.1040,4.3890,-1.8105,-0.4297,4.767
23.1440,5.4106,-1.2162,1.5342,5.754
23.1450,6.0495,-1.6280,7.4463,9.731
23.1450,6.9529,-1.6881,9.1061,11.581
23.1460,6.5580,-1.6017,9.6280,11.759
23.1490,7.6998,0.2202,10.3823,12.928
23.1600,7.0316,1.9126,6.8619,10.009
23.1790,5.1884,3.1464,3.5359,7.023
23.1860,3.5846,3.7513,1.8500,5.509
23.1900,1.7402,4.0919,-0.1395,4.449
23.2040,0.2178,3.9345,-2.4848,4.659
23.2110,-0.9988,3.3506,-6.2550,7.166
23.2230,-0.8826,2.6017,-9.8707,10.246
23.2290,1.8152,2.3365,-7.3404,7.914
23.2630,2.6161,2.3498,-3.2695,4.802
23.2640,3.0941,1.7243,-0.0082,3.542
23.2640,2.9613,0.9277,1.0407,3.273
23.2710,2.4808,-0.3480,0.8752,2.654
23.2800,1.0545,-1.1356,0.6584,1.684
23.2930,1.0742,-1.2904,0.8488,1.881
23.3010,1.2386,-1.2305,0.7809,1.913
23.3240,1.4316,-0.9942,1.2049,2.119
23.3260,-0.4091,-0.6327,1.7044,1.864
23.3290,-1.8343,0.3353,3.4082,3.885
23.3770,-4.3320,1.8755,4.3959,6.450
23.3780,-6.1750,3.1252,4.4263,8.215
23.3790,-7.1219,2.8539,4.6445,8.969
23.3800,-5.9354,1.8973,4.3134,7.579
23.3800,-3.9024,1.5765,5.2784,6.751
23.3950,-2.8156,1.9912,4.9336,6.019
23.4150,-2.1283,2.3519,5.3132,6.188
23.4160,-2.2904,2.4350,6.0920,6.949
23.4570,-2.6966,2.9231,6.6727,7.768
23.4580,-2.6020,2.8988,6.5778,7.645
23.4590,-3.7030,2.5799,2.3475,5.087
23.4590,-4.2440,1.5607,-0.5555,4.556
23.4600,-3.6378,-0.2586,-2.1157,4.216
23.4760,-1.7195,-1.4119,-1.8058,2.865
23.4800,3.9154,-6.5375,-0.5948,7.643
23.4910,13.1821,-12.4716,2.1274,18.271
23.5090,14.1245,-15.8117,2.8251,21.389
23.5100,9.7325,-17.8912,-0.2274,20.368
23.5630,6.5239,-18.4052,-2.6477,19.706
23.5670,6.6031,-14.7670,-2.8036,16.417
23.5720,4.1779,-9.9476,-2.0480,10.982
23.5750,2.1111,-6.8341,-2.4160,7.550
23.5770,0.8103,-4.5834,-6.0635,7.644
23.5800,-0.8693,-2.6168,-10.7085,11.058
23.5820,-1.9989,-0.8887,-16.2051,16.352
23.5900,-3.9634,-0.6330,-17.3479,17.806
23.6000,-4.5325,0.4375,-16.4395,17.058
23.6380,-3.1592,1.8930,-12.0988,12.647
23.6390,-0.0660,2.4970,-9.0897,9.427
23.6390,0.8898,3.2892,-5.7195,6.658
23.6400,1.5500,4.0733,-2.9198,5.246
23.6490,2.6080,4.5041,0.0130,5.205
23.6600,3.4481,5.2706,3.5101,7.210
23.6960,5.0491,5.7752,6.3699,9.971
23.7040,6.2314,5.7606,8.1634,11.775
23.7050,7.1513,5.5038,8.1188,12.139
23.7070,8.1056,4.7164,5.9137,11.087
23.7100,8.8859,3.4322,2.0138,9.736
23.7260,8.4496,1.7494,-3.0253,9.144
23.7290,8.2928,-0.2982,-9.3095,12.471
23.7730,6.3808,-2.3967,-10.8830,12.841
23.7740,4.1787,-3.6830,-8.7215,10.348
23.7750,4.3172,-3.0481,-6.8947,8.687
23.7760,3.3514,-2.1211,-5.1603,6.508
23.7800,2.3505,-1.0938,-3.9091,4.691
23.7890,0.7849,-0.2178,-2.5193,2.648
23.8030,-0.8300,0.0455,-1.2747,1.522
23.8130,-3.5479,0.0113,1.3642,3.801
23.8300,-4.7880,-0.2214,3.0259,5.668
23.8350,-6.0580,-1.2970,4.2518,7.514
23.8490,-6.4755,-2.5411,5.0623,8.603
23.8520,-5.5979,-3.7995,5.7867,8.903
23.8730,-3.7996,-4.5271,5.7096,8.218
23.8730,-0.6533,-4.1574,4.8019,6.385
23.8800,1.3644,-3.3885,3.6106,5.136
23.8890,2.5285,-4.7790,3.1045,6.235
23.9020,2.5247,-13.1886,5.9516,14.688
23.9100,3.4013,-23.5336,4.3795,24.178
23.9750,10.5052,-18.6499,-4.3520,21.843
23.9760,14.1291,-6.8786,-11.3080,19.360
23.9770,14.3550,0.0025,-15.9379,21.449
23.9780,14.3267,3.0677,-14.6324,20.707
23.9790,12.7679,3.6521,-11.1844,17.362
23.9810,10.4873,2.1087,-8.0367,13.380
23.9820,8.1583,0.1624,-3.1247,8.738
23.9960,6.4749,-1.4995,-0.8191,6.697
24.0020,4.7391,-2.4958,0.3211,5.366
24.0490,3.7881,-2.6015,2.7003,5.330
24.0620,4.7695,-1.6329,7.3688,8.928
24.0660,5.6267,-0.6151,7.2280,9.181
24.0720,5.8450,-0.8733,6.7136,8.944
24.0730,6.4304,-0.9264,8.2556,10.505
24.0730,7.9385,0.8104,7.0928,10.676
24.0770,7.0471,2.0347,3.8069,8.264
24.0820,5.0069,2.5924,1.4608,5.824
24.1260,3.8586,2.9433,0.1167,4.854
24.1270,2.3234,3.0782,-1.0353,3.993
24.1280,1.3854,2.8140,-2.8881,4.264
24.1280,1.4076,2.9208,-5.1212,6.061
24.1290,1.7379,2.9983,-8.0549,8.769
24.1420,3.4396,2.5259,-8.0783,9.136
24.1490,3.9877,1.9012,-3.4270,5.591
24.1790,3.7963,1.4715,0.1945,4.076
24.1860,3.5623,0.5234,2.1607,4.199
24.1910,1.7077,-0.4427,1.8968,2.590
24.1940,0.6140,-0.6414,1.6808,1.901
24.2010,0.9933,-0.3289,2.1955,2.432
24.2150,0.7989,-0.2941,2.2350,2.392
24.2740,-0.3930,0.3613,2.3568,2.416
24.2770,-2.5716,0.3319,2.1721,3.382
24.2800,-3.8862,0.6251,2.6785,4.761
24.2910,-4.1085,1.7554,4.4027,6.273
24.2940,-3.7638,2.6970,5.2217,6.979
24.2980,-2.5245,3.1344,5.5628,6.866
24.3010,-2.0350,2.5163,4.6389,5.656
24.3030,-2.8199,1.0778,4.1029,5.094
24.3030,-3.7641,0.0192,3.7414,5.307
24.3110,-3.7206,0.0105,3.7096,5.254
24.3250,-5.8564,-1.0726,3.6479,6.982
24.3290,-4.1881,0.8976,3.7140,5.669
24.3830,-3.2364,2.4437,4.1949,5.835
24.3960,-3.3478,2.6205,3.5292,5.525
24.4000,-3.3732,2.5324,2.2794,4.794
24.4020,-3.4949,1.8718,0.1644,3.968
24.4050,-2.7000,1.1045,-2.0222,3.550
24.4070,0.5962,-1.2305,-1.8819,2.326
24.4100,6.9074,-6.1076,-0.0046,9.220
24.4100,13.6044,-11.1404,1.5189,17.649
24.4240,13.5184,-14.6617,1.4328,19.994
24.4680,12.2053,-16.9632,0.5339,20.905
24.4690,9.3325,-16.5190,0.5237,18.980
24.4690,5.9094,-12.7716,0.3574,14.077
24.4700,1.9438,-8.6677,-0.4149,8.893
24.4700,-0.7546,-6.5464,-2.7196,7.129
24.4800,-3.4795,-4.9905,-10.3540,12.009
24.5070,-5.4589,-3.4896,-16.2993,17.540
24.5140,-5.6576,-1.6925,-17.7020,18.661
24.5170,-5.7665,-0.1759,-17.0914,18.039
24.5220,-3.2207,0.9100,-14.9841,15.353
24.5420,-0.9101,2.2252,-12.6469,12.873
24.5430,0.4540,2.7295,-9.1524,9.562
24.5490,1.1682,2.9732,-5.2484,6.144
24.5600,3.5829,3.4815,-1.3317,5.170
24.5950,4.7652,4.1566,2.1070,6.665
24.5960,5.4859,4.8477,5.9911,9.460
24.5970,6.2331,4.9142,8.4099,11.564
24.6000,7.1872,4.6916,9.4884,12.794
24.6120,8.0078,4.7410,9.1850,13.075
24.6260,8.9438,4.3023,7.0563,12.178
24.6320,9.5021,2.8709,3.5728,10.550
24.6500,8.3299,0.3383,-3.7636,9.147
24.6540,7.2406,-1.6620,-11.2311,13.466
24.6620,5.9747,-3.2860,-13.1313,14.796
24.6720,3.1468,-3.8908,-10.6374,11.756
24.6800,2.0320,-2.7792,-8.5988,9.262
24.7050,0.8719,-1.3541,-6.8189,7.006
24.7060,-0.3203,-0.0100,-5.4203,5.430
24.7090,-1.6926,0.8394,-3.2672,3.774
24.7210,-3.5574,0.7241,-1.5381,3.943
24.7290,-4.9512,0.3125,1.4434,5.167
24.7400,-5.1121,-0.6452,4.0677,6.565
24.7490,-4.9150,-2.7334,5.5058,7.870
24.7970,-4.5460,-4.6449,6.3700,9.100
24.7970,-2.3446,-5.6408,7.0176,9.304
24.7980,-0.1242,-5.8021,7.0161,9.105
24.7980,1.0822,-6.6979,6.2957,9.256
24.8000,1.6051,-10.0915,5.0235,11.386
24.8100,0.6496,-19.3451,6.8221,20.523
24.8320,2.6085,-19.6403,5.2008,20.484
24.8400,10.1007,-5.6716,-4.7897,12.535
24.8490,12.1257,1.6723,-11.2510,16.626
24.8500,13.1877,4.3506,-14.6693,20.200
24.8690,11.8891,3.9950,-14.4068,19.102
24.8700,8.7310,1.7887,-10.3267,13.641
24.8990,6.7482,-0.7546,-6.4330,9.354
24.9000,5.4183,-3.6224,-3.3354,7.322
24.9000,4.8226,-5.5006,-1.0150,7.385
24.9090,5.0067,-5.5901,0.0950,7.505
24.9250,6.2212,-3.8265,1.5702,7.471
24.9290,7.0989,-1.9774,6.0309,9.522
24.9680,7.2025,-0.6307,7.9646,10.757
24.9770,7.1421,0.4448,7.7094,10.519
24.9800,8.1559,1.4234,9.5215,12.618
24.9840,8.0344,1.4639,9.3738,12.432
24.9890,7.2455,4.3203,2.8175,8.894
24.9970,5.8214,4.4318,0.4583,7.331
25.0010,4.2042,4.1814,-0.1797,5.932
25.0120,2.4636,3.7140,-0.7548,4.520
25.0260,0.9701,2.7153,-1.4558,3.230
25.0310,0.4002,2.3468,-1.1076,2.626
25.0460,0.2326,1.9225,-0.7697,2.084
25.0490,0.5565,1.5095,-0.7101,1.759
25.0630,1.8668,0.6393,-4.6505,5.052
25.0690,3.8662,0.0666,-6.6965,7.733
25.1230,4.3882,-0.2206,-4.6495,6.397
25.1240,3.7526,-0.4840,-1.0535,3.928
25.1250,2.5016,-0.6703,2.2598,3.437
25.1260,1.5005,-0.8892,2.7015,3.216
25.1270,0.0939,-1.1033,1.4321,1.810
25.1290,0.0672,-0.8876,0.6336,1.093
25.1420,1.0461,-0.9838,1.1958,1.869
25.1490,0.4686,-0.7805,2.5621,2.719
25.1660,-2.2059,-0.1306,4.7899,5.275
25.1720,-4.8222,1.5263,6.1554,7.967
25.1810,-4.9266,1.5406,6.2182,8.082
25.2090,-6.3731,3.0290,5.6514,9.040
25.2100,-4.8159,2.5999,5.0568,7.451
25.2110,-3.6389,1.8757,4.7525,6.273
25.2230,-3.5681,1.8659,4.7079,6.195
25.2290,-3.5695,1.6294,4.0463,5.636
25.2440,-3.9981,1.5265,4.6141,6.293
25.2500,-3.3924,2.1957,5.4632,6.795
25.3040,-2.7722,2.8800,5.2039,6.562
25.3100,-3.5538,2.2864,3.4033,5.426
25.3130,-4.0746,0.9597,1.8847,4.591
25.3150,-3.3655,-0.8438,0.1548,3.473
25.3170,-1.7879,-1.6613,-0.6808,2.534
25.3190,3.0331,-6.1192,0.0006,6.830
25.3230,9.4410,-11.1460,1.6203,14.697
25.3310,11.0850,-14.7085,1.5041,18.479
25.3440,9.3230,-16.1288,-2.5829,18.808
25.3500,8.6116,-15.5032,-5.1388,18.464
25.3620,8.6674,-12.5744,-3.2995,15.625
25.3690,7.2366,-8.1306,-1.7055,11.017
25.4020,5.0264,-4.6851,-0.7851,6.916
25.4020,2.4090,-2.5348,-1.7177,3.896
25.4030,1.2829,-1.8268,-5.3657,5.811
25.4410,0.0084,-1.4811,-10.8659,10.966
25.4490,-1.0792,-0.2851,-14.9169,14.959
25.4520,-2.4661,0.8983,-14.6013,14.835
25.4560,-3.1912,1.8755,-11.9345,12.495
25.4590,-3.1849,2.8134,-9.6732,10.565
25.4620,-2.1036,3.4022,-8.1106,9.043
25.4750,-0.4485,3.5136,-5.8163,6.810
25.4800,0.8436,3.9168,-2.7079,4.836
25.4900,3.2043,4.8102,1.2486,5.913
25.5000,5.1406,4.9809,3.6412,8.031
25.5500,6.7029,4.4166,6.7837,10.510
25.5590,7.8712,4.1678,8.7084,12.456
25.5610,8.5792,3.6542,8.9247,12.908
25.5630,9.3454,2.7582,6.5150,11.721
25.5650,9.8908,1.4081,1.2658,10.070
25.5670,8.8044,-1.3284,-6.6314,11.102
25.5960,6.3972,-3.6075,-10.6556,12.941
25.5990,3.8456,-4.7844,-9.3552,11.189
25.6030,3.2603,-3.6758,-7.4810,8.950
25.6060,2.8799,-1.6308,-5.2243,6.184
25.6130,1.7150,-0.3694,-3.5820,3.989
25.6200,0.1662,0.5234,-2.0842,2.155
25.6290,-1.4610,1.0386,-1.0547,2.080
25.6740,-3.5687,1.1667,0.3339,3.769
25.6800,-5.0475,0.9493,1.7165,5.415
25.6840,-6.1864,-0.3421,2.8766,6.831
25.6880,-6.3753,-1.9904,3.7236,7.647
25.6930,-6.5430,-3.8865,5.1028,9.163
25.6960,-4.7148,-4.6228,5.4067,8.534
25.7030,-1.1633,-4.1156,5.3118,6.820
25.7090,1.5414,-3.0380,4.6860,5.793
25.7200,3.3836,-2.3694,2.5075,4.832
25.7290,5.3655,-4.7873,3.1946,7.868
25.7810,4.0929,-16.7875,8.5460,19.277
25.7870,4.6116,-23.9454,2.4105,24.504
25.7890,12.9035,-10.5282,-8.8288,18.849
25.7920,15.2743,-1.2792,-16.2633,22.348
25.7950,14.7626,3.0487,-16.2682,22.178
25.7970,11.6276,3.2433,-11.5327,16.695
25.8060,8.4371,2.2645,-5.9855,10.590
25.8110,6.6706,1.2712,-1.7427,7.011
25.8220,4.9887,-0.2165,0.7264,5.046
25.8320,3.0815,-2.2192,1.8738,4.235
25.8430,2.6628,-3.1701,3.7722,5.601
25.8780,5.4934,-2.9112,8.5502,10.572
25.8790,6.2532,-2.1625,9.4174,11.509
25.8790,5.1084,-1.9355,7.4646,9.250
25.8800,5.6629,-1.6454,9.8091,11.445
25.8910,6.5289,0.6549,8.7893,10.968
25.9000,5.4878,2.0457,5.9707,8.364
25.9110,4.2926,2.7206,3.7103,6.292
25.9200,2.8983,2.9884,1.4993,4.425
25.9470,1.5956,3.0292,-2.4792,4.227
25.9490,2.1984,3.5432,-6.5481,7.763
25.9580,3.3145,4.3093,-10.0751,11.448
25.9630,4.8042,4.0712,-10.0854,11.890
26.0020,4.1274,3.2546,-3.7387,6.450
26.0080,3.2358,2.5913,0.1186,4.147
26.0090,2.8992,2.1688,2.7220,4.530
26.0100,2.4030,1.4251,3.0368,4.126
26.0110,1.3599,0.5207,2.2692,2.696
26.0200,0.4011,-0.1890,1.7451,1.801
26.0290,0.5086,-0.9783,1.9924,2.277
26.0700,0.0312,-1.4498,1.6408,2.190
26.0710,0.9461,-1.5946,2.0062,2.732
26.0720,1.4232,-1.6652,2.2053,3.108
26.0720,0.0520,-1.1934,2.7500,2.998
26.0800,-1.2991,0.0859,4.3602,4.550
26.0960,-2.7758,1.7243,5.5731,6.460
26.1000,-3.8744,2.7412,6.6027,8.131
26.1120,-3.7291,2.9970,6.2457,7.867
26.1200,-2.3039,2.3496,5.9477,6.797
26.1300,-1.9315,1.4272,5.3065,5.825
26.1820,-2.6024,0.8704,4.8890,5.606
26.1830,-4.1745,0.5603,4.7374,6.339
26.1840,-5.4129,0.4798,4.2764,6.915
26.1850,-4.8289,1.7304,4.5933,6.886
26.1860,-3.7728,3.3529,4.8496,7.000
26.1940,-3.3553,3.8828,3.3639,6.136
26.2000,-2.9701,3.5655,1.1257,4.775
26.2180,-2.5661,2.9735,-1.4832,4.198
26.2260,-1.2531,2.1446,-2.1819,3.306
26.2660,1.4903,-0.8635,-0.6712,1.849
26.2660,9.2680,-8.4163,3.1490,12.909
26.2670,14.8132,-13.9697,5.6167,21.122
26.2680,13.3703,-17.5474,5.2927,22.687
26.2690,9.2851,-20.5722,3.6958,22.871
26.2820,7.1474,-17.9303,0.8544,19.321
26.3290,5.6364,-13.3219,-0.8118,14.488
26.3370,3.9115,-8.3743,-2.9214,9.693
26.3450,2.3031,-5.5162,-5.5561,8.161
26.3470,-0.8162,-3.7452,-12.4970,13.072
26.3500,-2.6694,-2.0688,-17.5665,17.888
26.3520,-4.2911,-0.8323,-18.9496,19.447
26.3550,-5.9254,0.2621,-16.9047,17.915
26.3680,-4.7154,1.4861,-12.6499,13.582
26.3690,-1.4634,2.5229,-7.7144,8.247
26.4240,-0.3929,2.5046,-2.7277,3.724
26.4250,1.8821,3.0749,-0.5833,3.652
26.4260,3.3050,3.9974,2.7459,5.869
26.4270,4.9032,4.8018,5.3959,8.730
26.4270,6.7197,5.5173,7.2705,11.334
26.4310,8.2650,6.0967,8.9929,13.651
26.4720,8.9230,6.2516,9.0592,14.169
26.4780,9.6627,5.9434,7.4209,13.556
26.4820,10.8151,4.9569,4.2587,12.636
26.4840,9.9782,2.5356,-1.2382,10.369
26.4860,8.6697,0.2648,-5.7333,10.397
26.4980,7.8027,-1.4432,-8.3182,11.496
26.5000,6.3132,-2.6162,-7.1930,9.922
26.5530,5.5478,-2.7293,-5.6197,8.355
26.5610,4.0064,-2.2785,-4.9064,6.732
26.5630,1.4307,-1.5521,-4.2334,4.731
26.5660,1.3031,-1.4399,-4.1350,4.568
26.5670,-3.3662,-0.6419,-2.0446,3.990
26.5700,-5.3437,-0.3486,-0.6055,5.389
26.5730,-6.6973,-0.1646,1.5426,6.875
26.5870,-6.6768,-0.4759,3.9425,7.769
26.5940,-4.6289,-1.7965,4.0553,6.411
26.6010,-2.9994,-3.1186,4.7730,6.442
26.6430,-0.4455,-4.1323,5.6120,6.983
26.6480,2.1327,-4.1650,5.1881,6.987
26.6530,4.2575,-3.4581,4.2450,6.936
26.6610,5.1946,-3.3975,3.3959,7.075
26.6660,5.7689,-7.1424,4.3344,10.153
26.6700,4.1330,-16.1572,4.9334,17.392
26.6740,3.7061,-18.1747,-2.6662,18.739
26.6920,8.3936,-5.5478,-10.8664,14.809
26.6950,10.6231,-0.6280,-13.5166,17.203
26.7550,9.0819,-0.1474,-9.9183,13.449
26.7630,6.5847,-0.7839,-6.3436,9.177
26.7650,5.3236,-0.8937,-2.5528,5.971
26.7670,5.0057,-0.6319,-0.4937,5.070
26.7720,4.8850,-0.6373,0.6717,4.972
26.7750,4.6175,-1.0590,1.5999,5.000
26.7770,5.4971,-0.8324,2.6629,6.165
26.7790,6.4707,-0.4950,6.9016,9.474
26.7830,6.0688,-0.4201,7.5473,9.694
26.8000,6.9967,-0.2980,8.4081,10.943
26.8060,8.9940,0.3183,11.0136,14.223
26.8130,10.5138,1.8456,9.3417,14.185
26.8250,8.7939,3.0492,5.1078,10.617
26.8290,7.5326,3.3700,2.7144,8.687
26.8740,4.8956,3.3197,0.4425,5.932
26.8770,3.0390,2.9858,-1.3853,4.480
26.8780,1.1540,2.8781,-3.5067,4.681
26.8780,0.2789,2.8169,-4.9462,5.699
26.8800,-0.0249,2.4463,-6.7260,7.157
26.9170,1.3827,1.7810,-7.8143,8.133
26.9190,2.0867,1.8532,-5.9094,6.535
26.9210,3.3352,1.5192,-1.9914,4.171
26.9240,3.7518,0.4380,0.2257,3.784
26.9310,2.8722,-0.9377,0.4002,3.048
26.9500,1.3118,-1.7208,1.0071,2.387
26.9510,0.9255,-1.7135,2.0956,2.861
27.0040,0.7309,-1.6755,2.1696,2.837
27.0160,1.8030,-0.8312,1.3092,2.378
27.0180,2.1372,-0.7445,1.5113,2.721
27.0220,0.8525,-0.5515,2.9149,3.087
27.0250,-1.6915,0.1728,4.4005,4.718
27.0280,-4.6015,1.6042,5.7013,7.500
27.0320,-5.8291,3.1298,6.0951,8.996
27.0330,-5.9448,3.4407,5.3567,8.711
27.0470,-4.9660,2.6640,4.9047,7.471
27.0520,-3.6767,1.5859,4.6835,6.162
27.1160,-4.0194,1.1264,4.0923,5.846
27.1240,-4.8630,0.7982,4.1274,6.428
27.1300,-4.7366,0.6347,5.2334,7.087
27.1330,-3.8934,1.1766,6.4481,7.624
27.1360,-3.0688,1.7024,5.8537,6.825
27.1380,-3.1773,1.4938,4.0794,5.382
27.1420,-3.7386,0.5357,2.2308,4.386
27.1430,-3.3689,-0.6599,0.0132,3.433
27.1430,-1.7771,-1.6202,-0.6930,2.503
27.1510,3.0907,-5.2622,0.3821,6.115
27.1630,3.3568,-5.3325,0.2866,6.308
27.1720,11.8110,-11.2652,1.5705,16.397
27.2200,10.5439,-12.4709,-0.8468,16.353
27.2310,10.2143,-12.6325,-2.3437,16.414
27.2330,9.9553,-11.1002,-1.6306,14.999
27.2350,8.4489,-7.7531,-0.0790,11.467
27.2360,4.9094,-5.3004,0.7587,7.264
27.2390,2.4640,-4.1740,-1.3574,5.034
27.2440,1.0211,-3.6338,-6.3525,7.389
27.2630,-0.6013,-2.2566,-11.1806,11.422
27.2640,-4.0517,-0.5214,-14.2360,14.811
27.3090,-7.0777,-0.0168,-13.3453,15.106
27.3100,-8.3604,0.3440,-9.9672,13.014
27.3100,-4.4840,1.4982,-8.2903,9.544
27.3110,-1.4840,1.9396,-6.9884,7.403
27.3120,1.7863,2.7509,-5.6801,6.559
27.3210,3.7651,3.4787,-1.7089,5.404
27.3410,5.3392,3.9404,2.3932,7.054
27.3470,6.3866,4.4201,5.9040,9.756
27.3510,6.8973,4.6637,8.2077,11.691
27.3900,7.6258,5.1808,9.2663,13.071
27.3910,8.3054,5.5872,7.8965,12.750
27.3920,9.3159,5.2504,4.2969,11.525
27.3920,8.4437,3.0807,-1.1575,9.062
27.4000,7.0230,0.8670,-7.5521,10.349
27.4410,5.5064,-0.5828,-9.7043,11.173
27.4530,3.7508,-1.6016,-7.8047,8.806
27.4560,3.1489,-1.3612,-5.4490,6.439
27.4620,1.8807,-0.6632,-3.6096,4.124
27.4650,0.6898,-0.0037,-2.7100,2.796
27.4670,-1.3881,0.2238,-2.3930,2.776
27.4710,-3.8099,0.2107,-1.3700,4.054
27.4860,-5.9861,0.1703,0.3247,5.997
27.4900,-6.5522,0.2074,2.1192,6.889
27.5390,-5.5997,-0.8030,3.2001,6.499
27.5390,-3.8811,-2.1728,3.9310,5.936
27.5410,-2.3078,-3.5050,4.4028,6.082
27.5470,-0.2978,-4.3555,3.8767,5.838
27.5560,2.7965,-3.8624,3.5431,5.941
27.5610,4.4872,-2.9782,3.4888,6.417
27.5640,4.5219,-3.4741,3.7225,6.810
27.5820,4.5100,-8.2199,4.3707,10.345
27.5830,3.6956,-16.0512,1.8971,16.580
27.5890,6.2808,-14.4475,-3.2402,16.083
27.6320,9.6412,-5.8833,-6.1984,12.884
27.6330,8.9496,-3.3359,-9.8757,13.739
27.6330,7.2513,-2.1034,-9.8193,12.386
27.6340,5.4488,-1.3229,-7.8359,9.635
27.6750,5.4660,-1.3183,-7.7783,9.598
27.6800,4.4092,-1.6991,-4.2343,6.345
27.6820,5.0149,-1.7303,-2.2873,5.777
27.6830,6.3324,-1.4295,-0.3705,6.502
27.6840,7.7562,-0.7619,0.0153,7.794
27.7200,8.6573,0.3661,0.1468,8.666
27.7230,7.6939,0.9284,3.5314,8.516
27.7270,7.0131,1.3106,5.8839,9.248
27.7300,7.6744,1.7246,7.1457,10.627
27.7320,7.6959,2.1521,7.1531,10.725
27.7670,6.7784,2.6960,5.0128,8.851
27.7680,5.3352,3.3238,2.9380,6.939
27.7680,3.6461,3.1522,1.6872,5.107
27.7690,2.3394,2.8275,1.2320,3.871
27.7810,1.2803,2.4640,0.4079,2.807
27.7910,0.0195,2.3103,-0.5653,2.379
27.8370,-0.7878,2.4940,-2.1797,3.405
27.8380,-1.4836,2.1239,-3.9239,4.702
27.8390,-1.3763,1.7786,-4.7101,5.219
27.8390,0.6591,1.5005,-5.6573,5.890
27.8600,3.6740,0.9046,-4.9604,6.239
27.8640,5.5199,0.2824,-2.3496,6.006
27.8690,5.1583,-0.8309,0.8488,5.293
27.8700,2.7580,-1.4717,2.6556,4.102
27.8820,2.5704,-1.4369,2.7362,4.020
27.8890,0.9412,-0.7637,1.5099,1.936
27.9410,0.7640,-0.0517,1.8033,1.959
27.9420,-0.0462,-0.0774,2.0322,2.034
27.9430,-2.3081,-0.2694,2.4677,3.390
27.9430,-3.5355,0.1255,3.4967,4.974
27.9440,-5.2646,1.3780,5.0678,7.436
27.9500,-4.8462,2.7152,6.3565,8.442
27.9640,-4.0119,3.3972,5.7024,7.756
27.9690,-3.6140,3.2353,4.1570,6.388
27.9850,-3.0546,2.5158,3.8224,5.502
27.9890,-4.0175,1.8355,3.4251,5.589
28.0350,-5.4660,0.9926,3.3928,6.510
28.0360,-5.6080,0.7781,3.8394,6.841
28.0360,-5.2971,1.3035,4.0390,6.788
28.0370,-4.4767,2.3707,3.3016,6.047
28.0400,-3.8938,2.7767,2.1165,5.230
28.0510,-4.2814,1.6284,1.9316,4.971
28.0710,-3.2323,-0.0402,0.5046,3.272
28.0820,-2.6705,-1.3775,-0.9837,3.162
28.0840,-0.8579,-3.8513,-1.6499,4.277
28.0910,4.4356,-10.2396,0.1706,11.160
28.1220,9.8478,-14.3615,1.2530,17.459
28.1230,9.7162,-16.7561,-0.6352,19.380
28.1240,8.3543,-16.9268,-3.7096,19.237
28.1650,8.7066,-13.4822,-4.2675,16.607
28.1660,7.9068,-9.3198,-2.8777,12.556
28.1670,5.7164,-5.0538,-1.4356,7.764
28.1680,2.8090,-2.8646,-2.1061,4.531
28.1700,0.2510,-1.8280,-5.8606,6.144
28.1860,-1.2136,-0.7806,-11.5732,11.663
28.1900,-4.1663,-0.1556,-16.0848,16.616
28.2300,-5.6046,0.9292,-14.8761,15.924
28.2380,-6.1780,1.2624,-11.0670,12.737
28.2400,-4.5050,1.3742,-9.3905,10.505
28.2440,-0.2368,2.5308,-8.4822,8.855
28.2460,1.7201,2.9123,-5.7525,6.673
28.2500,3.0274,4.3603,-1.4611,5.506
28.2610,3.9441,5.2920,1.7974,6.840
28.2690,4.0401,5.3664,6.3714,9.258
28.2840,5.0073,5.6499,9.3882,12.047
28.2900,5.5185,5.5704,9.7715,12.529
28.3500,6.4918,5.2175,7.6540,11.311
28.3580,7.2589,3.9888,3.1695,8.868
28.3640,6.4689,1.6278,-2.1903,7.021
28.3660,5.7068,-0.8628,-10.6264,12.093
28.3680,4.5892,-2.7338,-13.7992,14.797
28.3710,2.5816,-3.9042,-10.4300,11.432
28.3730,3.5608,-2.9745,-7.4188,8.750
28.3750,2.8705,-1.8266,-4.1612,5.375
28.3840,1.0435,-0.7508,-2.8928,3.166
28.3940,-0.8898,0.0749,-2.4120,2.572
28.4070,-3.2466,0.6249,-1.0828,3.479
28.4110,-4.8650,1.1348,0.2242,5.001
28.4220,-6.4351,0.7696,1.4174,6.634
28.4790,-6.1289,-0.2024,1.5054,6.314
28.4880,-5.3745,-1.6086,2.1361,6.003
28.4940,-4.4316,-2.6720,3.0227,5.993
28.4960,-2.7668,-3.3692,3.7661,5.761
28.4990,-0.5286,-3.2798,4.6073,5.680
28.5030,1.1004,-3.0818,4.5086,5.571
28.5050,1.5341,-5.5730,4.8127,7.522
28.5080,1.8847,-14.7024,4.7076,15.552
28.5130,2.9658,-23.6053,-1.1321,23.818
28.5210,11.2803,-13.5008,-7.3904,19.082
28.5820,12.6992,-3.3518,-10.5800,16.865
28.5900,11.9771,1.2101,-10.9280,16.258
28.6000,10.2052,1.2086,-9.9325,14.292
28.6040,8.4336,0.1696,-7.8853,11.547
28.6120,6.9426,-0.6991,-5.7779,9.059
28.6130,5.5901,-1.5133,-3.6410,6.841
28.6140,4.3638,-2.1858,-1.7830,5.196
28.6150,4.1010,-1.9022,0.0090,4.521
28.6160,4.8345,-1.1291,1.9433,5.331
28.6230,5.7202,-0.6170,6.0777,8.369
28.6380,6.6070,-0.5621,7.0775,9.698
28.6430,7.3032,-0.3187,7.8560,10.731
28.6880,8.1109,0.4124,9.4029,12.425
28.6940,8.2714,1.7797,5.2637,9.964
28.6990,6.4787,2.6422,1.1970,7.098
28.7010,4.8266,2.9491,-0.6559,5.694
28.7040,3.3347,3.1520,-2.1271,5.058
28.7060,2.2704,2.9778,-3.7029,5.266
28.7220,1.4948,2.5935,-4.8289,5.681
28.7230,1.2027,2.6526,-5.1938,5.955
28.7320,1.1850,2.7359,-4.2329,5.178
28.7760,1.3325,2.7905,-2.7384,4.131
28.7770,2.1744,2.6377,-0.8855,3.531
28.7770,2.5744,1.9945,-0.6087,3.313
28.7780,2.2645,0.9421,-1.0685,2.675
28.7870,2.4157,-0.0295,-0.6638,2.505
28.7890,1.2658,-0.5599,0.1021,1.388
28.8000,0.5624,-0.7717,0.4915,1.074
28.8500,0.5495,-0.7051,0.5476,1.048
28.8510,0.1484,-0.9153,0.7494,1.192
28.8520,-1.4552,-1.4925,1.7676,2.733
28.9080,-3.7136,-1.0817,2.9209,4.847
28.9090,-5.6638,0.5298,4.7260,7.396
28.9100,-6.1598,2.3094,6.1584,9.011
28.9110,-5.1176,3.0445,6.2979,8.667
28.9230,-3.5458,2.4044,5.4150,6.905
28.9230,-2.3558,1.4655,3.7001,4.625
28.9240,-2.7712,0.7659,4.1771,5.071
28.9250,-4.6377,-0.0813,3.8863,6.051
28.9260,-5.8638,-0.7474,3.6294,6.937
28.9340,-5.2076,-0.3293,3.7551,6.429
28.9410,-3.4857,1.8033,4.4779,5.954
28.9880,-3.8452,2.2741,3.8939,5.926
28.9880,-4.0410,2.2351,1.9453,5.011
28.9890,-4.3044,1.7144,0.4447,4.655
28.9890,-3.0161,1.0548,-1.1834,3.407
28.9900,-1.0463,0.3429,-1.3392,1.734
29.0210,4.2037,-3.6463,-0.1646,5.567
29.0260,10.5159,-8.0766,1.4985,13.344
29.0270,13.2868,-10.7242,2.2663,17.225
29.0930,11.1754,-12.9152,0.6951,17.093
29.0940,9.1143,-14.7358,-0.4252,17.332
29.0950,7.2099,-14.1147,-0.2349,15.851
29.0960,3.7816,-11.1021,0.5567,11.742
29.0960,1.5645,-8.0808,0.0705,8.231
29.0970,-0.1615,-6.1167,-4.5014,7.596
29.0980,-2.9480,-4.5817,-13.6080,14.658
29.1470,-4.7795,-2.2933,-18.7327,19.468
29.1600,-6.2854,-0.7650,-19.6176,20.614
29.1660,-6.7744,0.9970,-17.2956,18.602
29.1710,-5.5527,2.1332,-12.0494,13.438
29.1720,-2.3146,2.3961,-7.5408,8.244
29.1730,-2.2054,2.3843,-7.4951,8.169
29.1730,1.7765,3.5531,-2.0474,4.469
29.1740,3.3479,4.2833,1.5069,5.641
29.1910,4.7848,4.8001,5.3373,8.627
29.1920,5.9445,5.1332,7.8157,11.080
29.2010,6.9394,5.4351,9.6450,13.066
29.2090,7.9034,5.1444,8.8375,12.924
29.2210,8.5314,4.4435,6.1240,11.403
29.2690,8.8550,2.7087,0.7079,9.287
29.2760,8.0280,0.5777,-6.2123,10.167
29.2820,6.3930,-1.7385,-12.6489,14.279
29.2850,4.5734,-3.7818,-11.4952,12.937
29.2880,4.1220,-4.5512,-8.6523,10.610
29.2920,3.4363,-3.5923,-6.3565,8.070
29.2950,1.9200,-2.0600,-4.4675,5.281
29.3120,0.1032,-0.9799,-3.7869,3.913
29.3130,-1.9440,-0.0520,-2.8821,3.477
29.3200,-3.7437,0.5151,-1.6158,4.110
29.3290,-5.9894,0.8552,0.7730,6.099
29.3400,-6.8323,0.8831,2.5993,7.363
29.3620,-5.9063,-0.1285,2.8738,6.570
29.3630,-4.5455,-1.3901,2.9634,5.601
29.3700,-3.8809,-3.2711,3.9402,6.425
29.4080,-2.6757,-4.5298,4.4496,6.890
29.4150,0.3959,-4.3115,4.4651,6.220
29.4180,2.4463,-3.8297,3.6488,5.828
29.4200,3.0368,-4.5650,3.9103,6.734
29.4230,3.1793,-9.7616,6.1673,11.976
29.4340,1.9595,-19.1482,6.5424,20.330
29.4400,6.3937,-14.2321,-0.9950,15.634
29.4540,10.6046,-3.2197,-8.0138,13.676
29.5230,11.3624,1.0961,-10.0288,15.195
29.5300,9.9643,1.8458,-10.5262,14.611
29.5370,7.4085,0.6946,-9.7335,12.252
29.5390,5.4186,-0.5260,-8.6362,10.209
29.5420,4.2839,-1.3106,-6.5121,7.904
29.5440,3.9279,-1.7856,-3.6264,5.636
29.5460,4.2428,-2.1363,-0.9813,4.851
29.5500,5.2603,-1.5874,1.1498,5.614
29.5520,6.0545,-0.6371,2.2609,6.494
29.5520,6.0294,-0.0916,3.8820,7.172
29.5710,6.5013,0.2338,7.2337,9.729
29.5710,6.8790,0.6064,8.8377,11.216
29.5820,7.2178,1.5690,8.9167,11.579
29.6000,7.1590,3.0958,5.9648,9.819
29.6010,5.3509,3.5469,2.2727,6.810
29.6730,3.5895,3.2716,0.0859,4.858
29.6860,3.4194,3.2895,-0.0292,4.745
29.6880,0.1077,3.1431,-1.7466,3.597
29.6920,-1.0698,2.7528,-2.3277,3.760
29.6960,-1.2518,2.5991,-3.2153,4.320
29.7030,-1.2753,1.9770,-3.1702,3.948
29.7090,0.5883,1.5843,-4.8450,5.131
29.7100,0.4928,1.5881,-4.8870,5.162
29.7110,3.6076,1.0781,-2.8025,4.694
29.7120,3.4338,0.2000,-0.6252,3.496
29.7150,2.3007,-0.5079,1.2300,2.658
29.7230,0.4705,-0.9233,2.4504,2.660
29.7320,-0.3538,-0.9183,2.2254,2.433
29.7890,-0.1209,-0.8636,1.3836,1.635
29.7970,0.1868,-0.9996,1.1651,1.546
29.8000,-0.0705,-0.9165,1.7852,2.008
29.8040,-1.8811,-0.4995,3.1724,3.722
29.8060,-4.7806,0.2206,3.9610,6.212
29.8070,-7.0027,1.4332,4.4686,8.430
29.8100,-7.7594,2.4192,4.4848,9.283
29.8140,-6.4229,2.9416,4.7208,8.497
29.8200,-5.0312,2.7552,4.4775,7.277
29.8420,-4.3372,2.1050,3.7504,6.108
29.8560,-4.0861,1.8142,3.6570,5.776
29.8570,-3.6793,2.0855,4.4891,6.168
29.8870,-3.2612,2.6211,5.5936,6.985
29.8880,-3.1460,2.6081,5.5216,6.869
29.8900,-3.7393,2.7666,4.8956,6.753
29.8910,-3.6774,2.4926,2.8484,5.277
29.9020,-3.5932,1.9368,0.8475,4.169
29.9090,-2.9048,0.6480,-1.1655,3.196
29.9210,-1.3328,-0.6691,-1.2680,1.957
29.9310,4.2776,-6.0222,0.7742,7.427
29.9420,11.9948,-11.2744,2.7974,16.698
29.9530,13.3133,-14.5438,3.4256,20.013
29.9630,9.9203,-17.3626,-0.6687,20.008
30.0270,8.5202,-18.1981,-2.9687,20.312
30.0330,8.1780,-14.4010,-2.2474,16.713
30.0400,4.6306,-9.2509,-1.4385,10.445
30.0440,1.9613,-6.0349,-2.7908,6.932
30.0470,0.3967,-3.9604,-7.4800,8.473
30.0510,-0.7228,-2.2698,-12.7268,12.948
30.0530,-2.6634,-0.3890,-15.3890,15.623
30.0540,-5.3873,0.3790,-13.9775,14.985
30.0550,-8.0633,0.3191,-9.4948,12.461
30.0640,-5.2501,-0.0569,-6.4421,8.311
30.0720,-0.6446,1.0587,-5.3636,5.505
30.1160,3.0081,2.5476,-4.4785,5.966
30.1170,4.5559,3.3526,-2.0849,6.029
30.1170,4.5087,4.0193,1.0633,6.133
30.1180,4.6945,4.7679,2.9584,7.316
30.1200,5.2035,5.5453,4.4043,8.788
30.1710,6.1018,5.9389,4.8509,9.800
30.1810,6.4439,5.7659,4.0938,9.567
30.1850,6.6614,4.8415,1.5454,8.379
30.1880,6.5653,3.3856,-1.9531,7.641
30.1900,6.5246,2.2263,-4.7849,8.392
30.1950,5.9685,0.8661,-6.7146,9.025
30.2000,4.5762,-0.1196,-5.9683,7.522
30.2060,3.6742,-0.3773,-4.9297,6.160
30.2290,2.2492,-0.5764,-4.9176,5.438
30.2300,0.1003,-0.6452,-5.4292,5.468
30.2330,-1.9003,-0.6537,-4.5232,4.950
30.2400,-3.4436,-0.4968,-2.3295,4.187
30.2790,-4.4523,-0.3222,-0.7906,4.533
30.2880,-4.1691,-0.3823,0.3015,4.197
30.2910,-3.1255,-0.6100,1.0760,3.361
30.2950,-2.4062,-1.5235,1.9829,3.470
30.2980,-3.0144,-3.2369,2.9668,5.326
30.3120,-1.9232,-4.9887,4.8055,7.189
30.3150,0.7976,-4.8821,4.8239,6.909
30.3200,2.7905,-5.6098,3.8648,7.362
30.3700,2.4441,-10.4588,4.1461,11.513
30.3700,-0.0468,-20.0335,8.8563,21.904
30.3710,6.7331,-16.2841,5.2753,18.394
30.3720,12.1259,-6.4161,-4.4152,14.412
30.3720,13.1579,-0.3529,-9.4175,16.185
30.3840,12.8032,1.6141,-10.1669,16.428
30.3920,10.9593,1.5797,-10.5419,15.288
30.4090,8.9295,0.7674,-10.4384,13.758
30.4100,7.4982,-0.1905,-8.6347,11.438
30.4710,6.7131,-1.4137,-5.9270,9.066
30.4720,5.8749,-2.8022,-2.9262,7.137
30.4720,5.2797,-2.9285,-0.2863,6.044
30.4730,4.9822,-1.7503,2.6595,5.913
30.4730,6.0272,-0.9705,7.2822,9.503
30.4740,7.1299,-0.1572,8.9149,11.416
30.4880,7.0192,0.1693,9.7615,12.024
30.4960,6.3082,1.7951,8.4601,10.705
30.5090,6.1348,1.8267,8.2818,10.467
30.5100,4.9904,3.2657,0.1925,5.967
30.5740,4.1732,3.8071,-0.9838,5.734
30.5750,2.6428,3.4736,-2.7696,5.169
30.5750,1.0333,2.2868,-4.4253,5.087
30.5760,1.0511,1.6102,-8.4316,8.648
30.5770,2.3760,1.3304,-7.2972,7.789
30.5770,3.5348,1.4233,-3.3682,5.086
30.5880,3.6537,1.3933,-0.9259,4.018
30.5920,2.6167,1.1193,0.3294,2.865
30.6080,1.7275,0.4015,0.6133,1.877
30.6090,0.6326,-0.1280,0.5653,0.858
30.6580,0.3356,-0.3400,0.4584,0.662
30.6580,0.7040,-0.6745,0.3540,1.037
30.6590,0.8280,-1.0426,0.6630,1.487
30.6600,0.5575,-1.4281,1.3644,2.052
30.6600,-0.8060,-0.6274,2.5634,2.759
30.6700,-3.1694,0.1541,5.4538,6.310
30.6940,-5.2604,1.6835,6.2532,8.343
30.7040,-5.8189,2.6903,6.3364,9.014
30.7050,-4.9054,2.7289,5.2888,7.712
30.7430,-3.1247,2.2153,4.9034,6.222
30.7440,-2.9484,1.5593,4.5834,5.669
30.7440,-4.1624,1.2349,4.0558,5.941
30.7450,-5.7783,0.6455,3.9927,7.053
30.7510,-6.3847,0.3637,3.9412,7.512
30.7600,-4.9957,1.1856,4.3067,6.702
30.7730,-3.3708,2.8711,5.4007,6.984
30.8260,-3.3150,3.4868,4.5034,6.590
30.8320,-3.0915,3.2422,2.2404,5.009
30.8330,-2.7980,2.7461,-0.2298,3.927
30.8340,-2.3411,1.6788,-1.7371,3.364
30.8350,-0.0132,0.4026,-1.0411,1.116
30.8360,5.7537,-4.9953,1.1918,7.712
30.8480,13.2927,-11.5067,4.5033,18.149
30.8580,11.9933,-14.6785,4.4132,19.462
30.8600,7.9580,-17.4021,0.0561,19.135
30.9050,5.5122,-18.9515,-2.8110,19.936
30.9060,4.2414,-16.2120,-3.4950,17.118
30.9060,3.0495,-11.2847,-2.7442,12.007
30.9070,2.1068,-6.9184,-3.3401,7.966
30.9090,0.2093,-4.1542,-7.2893,8.393
30.9540,-1.0957,-1.8494,-14.0496,14.213
30.9610,-2.8400,-0.7934,-17.2978,17.547
30.9680,-4.1427,-0.5126,-17.1661,17.666
30.9730,-2.8811,0.6503,-15.6486,15.925
30.9760,-1.1612,1.9085,-12.2200,12.422
30.9780,-0.0483,2.2180,-7.6070,7.924
30.9990,0.4759,2.8271,-4.7753,5.570
30.9990,0.5688,3.5907,-1.9609,4.131
31.0020,1.4972,4.1377,1.5679,4.671
31.0090,3.0222,4.6892,4.9169,7.436
31.0200,5.2564,4.5070,6.0480,9.194
31.0290,7.4076,4.4818,7.1461,11.226
31.0400,8.0420,4.2912,6.9085,11.437
31.0910,9.5650,3.7533,3.6261,10.896
31.0970,10.5988,2.2678,-1.5087,10.943
31.0990,9.3799,0.0660,-7.6270,12.090
31.1010,7.6421,-1.7191,-10.7079,13.267
31.1030,5.0512,-3.4446,-9.5805,11.365
31.1050,2.7710,-3.7445,-7.5252,8.850
31.1380,2.5669,-2.7057,-5.9087,6.987
31.1420,1.6925,-1.4033,-4.7729,5.255
31.1450,0.2869,-0.2506,-3.6244,3.644
31.1470,-1.1744,0.3851,-2.4609,2.754
31.1500,-3.5274,0.5017,-0.2346,3.571
31.1600,-5.8906,0.0621,3.0314,6.625
31.1730,-5.3926,-0.7173,3.7818,6.625
31.2350,-4.0037,-1.7860,4.8070,6.506
31.2410,-3.2385,-3.3640,5.5999,7.291
31.2440,-1.4204,-4.4951,5.4458,7.203
31.2460,1.7970,-4.0551,4.5221,6.334
31.2480,3.4838,-3.7924,3.2876,6.110
31.2510,4.3814,-5.0469,3.1936,7.407
31.2520,4.8747,-10.8327,5.1368,12.942
31.2550,4.1370,-18.5545,0.7968,19.027
31.2760,8.6447,-13.4744,-6.0440,17.112
31.2790,10.3353,-4.5239,-10.0236,15.092
31.2820,9.6064,-0.7958,-12.1589,15.516
31.3280,8.5566,-0.3004,-11.8036,14.582
31.3300,7.2659,-0.5111,-10.1117,12.462
31.3300,6.2126,-1.1679,-7.5651,9.859
31.3310,5.9370,-1.7963,-4.6753,7.767
31.3320,5.8632,-2.1785,-2.2796,6.657
31.3830,6.0314,-1.9831,-0.5875,6.376
31.3920,6.8487,-0.8704,0.1888,6.906
31.3940,6.9526,0.0847,1.5157,7.116
31.3960,6.6869,0.7504,3.5200,7.594
31.4020,6.6252,1.2124,5.1503,8.479
31.4040,7.0565,1.2497,7.3241,10.247
31.4060,6.8317,1.3184,7.2506,10.049
31.4140,5.3889,2.1460,6.8485,8.975
31.4230,4.2644,2.6885,4.6504,6.858
31.4300,2.9717,2.6018,2.6445,4.753
31.4440,1.9023,2.1140,0.6017,2.907
31.5110,0.7068,1.5121,-1.6622,2.356
31.5190,-0.0189,1.1579,-4.7867,4.925
31.5210,-1.0313,0.5971,-8.5849,8.667
31.5230,1.3509,0.6913,-13.5360,13.621
31.5250,3.1771,0.6576,-7.7619,8.413
31.5260,3.9760,0.7190,-2.9314,4.992
31.5280,3.7874,0.0776,-0.0930,3.789
31.5310,3.2635,-0.8934,0.6002,3.436
31.5350,1.4072,-1.8286,-0.2217,2.318
31.5450,0.8445,-1.5966,-0.1128,1.810
31.5500,0.6634,-0.7717,-0.2798,1.055
31.5600,0.8714,-0.1041,0.4904,1.005
31.5990,0.5636,0.3508,2.5378,2.623
31.6000,-1.6529,0.4231,3.8534,4.214
31.6010,-4.1358,0.8054,4.2826,6.008
31.6020,-6.1859,1.6938,4.4997,7.835
31.6090,-6.5275,3.0113,4.9359,8.720
31.6240,-6.3916,3.5301,4.7887,8.732
31.6310,-5.3918,2.6894,4.6140,7.589
31.6750,-4.3841,1.7764,3.8500,6.099
31.6770,-3.8803,1.3299,3.7342,5.547
31.6790,-4.2545,1.0982,4.3417,6.177
31.6820,-4.6982,1.4363,4.8871,6.930
31.6850,-4.2941,2.6790,5.0160,7.126
31.6940,-4.2359,3.5252,3.8757,6.737
31.7460,-4.0984,3.4936,3.7542,6.565
31.7530,-4.2132,2.8404,-0.2340,5.087
31.7550,-4.4323,1.3780,-1.5184,4.884
31.7560,-2.8290,-0.1899,-1.5831,3.247
31.7580,1.5738,-4.7720,-0.7453,5.080
31.7590,11.6291,-11.4562,2.1488,16.465
31.7620,13.7382,-15.1768,3.6241,20.790
31.7770,9.8640,-17.4980,0.3055,20.089
31.7800,6.3815,-19.0730,-2.4801,20.265
31.8310,6.3397,-16.0730,-2.6357,17.478
31.8330,4.4934,-10.8537,-2.5971,12.031
31.8340,2.2647,-7.3140,-3.1765,8.289
31.8340,0.0481,-5.0766,-6.6778,8.389
31.8350,-1.0931,-3.4429,-13.2524,13.736
31.8460,-1.7373,-1.3064,-18.2127,18.342
31.8780,-4.1827,-0.6238,-18.6212,19.095
31.8800,-6.2707,-0.0853,-15.2713,16.509
31.8830,-4.9963,0.3851,-10.5189,11.652
31.8850,-1.4313,1.1460,-7.0920,7.325
31.9250,1.4278,2.0845,-5.0045,5.606
31.9290,2.3356,2.7938,-2.3617,4.340
31.9330,2.8969,3.4334,0.2906,4.502
31.9360,3.6197,4.8603,4.0127,7.268
31.9410,4.5818,5.5916,5.8791,9.318
31.9460,6.4402,5.2724,5.9993,10.260
31.9550,7.8024,5.4886,5.5612,11.042
31.9730,8.2806,5.2668,3.2384,10.334
31.9770,8.4408,4.4395,0.0270,9.537
31.9810,7.7281,2.8656,-3.9524,9.141
31.9890,7.5021,1.4352,-7.0622,10.403
32.0390,7.0582,-0.0379,-8.4328,10.997
32.0400,5.2633,-1.0980,-6.7329,8.616
32.0410,4.0863,-1.2455,-5.7414,7.156
32.0410,2.9912,-0.8773,-4.7962,5.720
32.0420,1.1976,-0.5896,-4.0192,4.235
32.0580,-1.3029,-0.5651,-3.1391,3.445
32.0780,-3.6246,-0.7410,-1.3021,3.922
32.0830,-6.1044,-1.1893,1.4407,6.384
32.0860,-6.5969,-1.8884,2.4056,7.271
32.0970,-7.0778,-3.5476,3.4492,8.636
32.1010,-4.5042,-4.2636,3.8153,7.282
32.1090,-1.3433,-4.4678,3.3958,5.770
32.1510,1.1022,-4.0329,2.5722,4.909
32.1520,3.0249,-3.5695,1.6940,4.976
32.1530,3.9530,-3.9106,1.4285,5.741
32.1530,3.5227,-7.3344,0.4309,8.148
32.1620,2.7306,-14.5242,-1.0173,14.814
32.1820,2.6923,-20.6812,-3.7570,21.191
32.1880,8.6955,-10.7934,-6.9415,15.501
32.1910,10.4028,-2.9635,-10.3703,14.985
32.2390,9.9362,-0.0800,-10.3296,14.333
32.2400,8.7752,1.1186,-8.4929,12.263
32.2400,7.2511,0.6420,-6.5203,9.773
32.2410,5.6293,-0.7006,-4.1849,7.049
32.2420,5.0859,-1.6301,-3.0960,6.173
32.2910,4.9691,-1.9481,-1.6084,5.574
32.3010,5.4535,-1.4520,-0.8688,5.710
32.3050,6.8886,-0.5388,0.4801,6.926
32.3080,7.7484,0.0321,2.8694,8.263
32.3130,6.9510,0.2316,4.9998,8.566
32.3230,6.9354,0.4167,5.9415,9.142
32.3270,8.0291,0.6545,7.6072,11.080
32.3300,8.3931,1.7370,5.9431,10.430
32.3320,6.0107,1.7730,3.2887,7.077
32.3430,4.2877,1.8444,0.7436,4.726
32.3550,3.0256,1.8904,-1.3223,3.805
32.3600,1.7840,1.8422,-3.8457,4.622
32.4100,0.6005,1.8833,-5.2918,5.649
32.4190,-0.4145,1.8555,-5.3590,5.686
32.4220,-0.9663,1.8098,-4.5941,5.031
32.4250,-0.7875,1.9269,-3.3513,3.945
32.4270,0.3146,1.8708,-2.4064,3.064
32.4300,1.9409,1.4427,-2.3534,3.374
32.4340,3.2990,0.6068,-2.8960,4.431
32.4420,3.2055,-0.6929,-2.7221,4.262
32.4540,1.8090,-1.4452,-1.0888,2.559
32.4600,0.7237,-1.0888,1.0444,1.673
32.5120,0.6157,-0.4468,1.7319,1.892
32.5240,0.2299,-0.1038,1.2389,1.264
32.5260,1.1594,0.2357,0.8789,1.474
32.5280,-0.7185,-0.2878,1.0518,1.306
32.5310,-3.0450,-0.2447,1.9744,3.637
32.5350,-5.6919,0.8438,3.6955,6.839
32.5370,-7.0516,1.9672,5.1763,8.966
32.5430,-6.9093,2.4339,4.7480,8.730
32.5530,-4.9927,2.0280,3.7378,6.558
32.5600,-3.7058,1.3595,3.4997,5.275
32.5720,-3.6931,1.0987,3.0632,4.922
32.5800,-3.9905,1.3095,3.0292,5.178
32.6370,-4.3255,1.2451,3.7064,5.831
32.6430,-4.1385,1.9758,4.5982,6.494
32.6440,-3.8051,2.8135,4.6627,6.643
32.6450,-3.9346,2.9562,2.7605,5.643
32.6460,-4.3835,2.6074,0.6719,5.144
32.6480,-4.2213,2.0978,-0.8811,4.795
32.6530,-2.8749,0.8968,-2.2675,3.770
32.6600,0.8537,-1.8420,-1.7524,2.682
32.6770,9.4877,-7.4756,0.0050,12.079
32.6800,14.8848,-10.9730,2.8802,18.715
32.7300,13.0385,-13.9187,2.9239,19.295
32.7310,9.7899,-15.9572,1.1709,18.757
32.7320,7.3381,-15.2354,-1.3521,16.964
32.7320,4.7969,-12.5679,-2.0667,13.610
32.7330,1.8936,-9.0979,-2.6252,9.657
32.7790,-1.2036,-6.9763,-4.7359,8.517
32.7860,-3.4275,-4.9879,-12.3945,13.793
32.7890,-5.4990,-3.0098,-16.5135,17.663
32.7910,-6.2575,-0.9987,-18.4627,19.520
32.7940,-6.3347,0.4467,-17.3425,18.469
32.7970,-5.9603,1.7965,-13.5008,14.867
32.8230,-4.4056,2.3575,-10.0204,11.197
32.8260,-2.2329,3.1562,-5.5737,6.783
32.8290,0.4543,3.7213,-2.1743,4.334
32.8320,3.1834,3.5857,-0.4705,4.818
32.8440,5.0661,3.8043,2.6109,6.852
32.8560,6.8745,3.8239,5.9910,9.888
32.8600,7.8776,3.9153,8.4442,12.194
32.9070,8.1398,4.0968,9.2781,13.005
32.9180,9.0083,4.2881,7.6036,12.544
32.9220,9.9091,3.1320,2.5723,10.706
32.9260,9.2736,0.9270,-4.8225,10.494
32.9280,7.2986,-0.7634,-11.8372,13.927
32.9320,5.1239,-2.3928,-11.4538,12.774
32.9370,3.8355,-3.0814,-8.7871,10.071
32.9420,4.0977,-1.8799,-7.0122,8.336
32.9500,3.0994,-0.7219,-5.6320,6.469
32.9600,2.2326,0.3823,-5.1873,5.660
33.0070,0.3026,0.9787,-4.0798,4.206
33.0090,-1.7730,1.2209,-2.5290,3.321
33.0130,-3.6928,1.2367,-1.1334,4.056
33.0150,-5.8218,0.5703,0.3077,5.858
33.0170,-6.6412,-0.4428,1.6306,6.853
33.0260,-6.8447,-2.2177,2.1135,7.499
33.0300,-5.8712,-3.5707,2.5655,7.335
33.0840,-3.8005,-4.4538,2.9688,6.565
33.0870,-0.9265,-4.1324,2.7631,5.057
33.0900,2.3263,-3.5396,2.5496,4.944
33.0940,3.1325,-3.5214,2.1327,5.173
33.0970,3.1159,-3.4967,2.1850,5.168
33.1010,2.2879,-11.3800,4.8894,12.595
33.1070,1.0132,-17.8672,2.1770,18.028
33.1120,5.6334,-11.1535,-3.8617,13.079
33.1220,8.6295,-3.9613,-10.1013,13.863
33.1340,9.4932,-0.3538,-13.1448,16.218
33.1410,8.9532,0.7936,-12.1768,15.135
33.1500,7.2695,-0.5581,-10.3715,12.678
33.1620,5.9724,-2.5267,-8.2791,10.517
33.2460,5.7876,-3.8261,-6.8828,9.773
33.2540,5.9475,-4.6343,-4.7690,8.921
33.2560,6.2278,-4.5439,-3.1617,8.332
33.2580,7.1902,-3.2187,-2.3072,8.209
33.2600,7.8717,-2.2490,0.1188,8.188
33.2620,8.7873,-1.9549,5.6772,10.643
33.2640,8.7131,-1.4875,8.7472,12.436
33.2660,7.9342,-0.4533,10.5378,13.199
33.2730,7.9351,1.4322,9.0758,12.140
33.2760,7.7987,1.4504,8.9335,11.947
33.2780,7.2737,3.2877,3.2309,8.611
33.2810,5.7132,3.6243,1.1119,6.857
33.3040,4.0113,3.3464,-0.5821,5.256
33.3040,2.4562,2.7767,-1.7060,4.081
33.3090,0.9662,2.1599,-2.8065,3.671
33.3220,0.2506,2.0100,-3.7026,4.220
33.3290,0.0517,1.7716,-4.6028,4.932
33.4020,1.1268,1.5874,-3.9296,4.385
33.4100,2.6809,0.9435,-3.6188,4.601
33.4120,4.4830,-0.1966,-5.5358,7.126
33.4140,4.6539,-1.5777,-6.3990,8.068
33.4150,3.6404,-2.1045,-5.1515,6.650
33.4170,2.3900,-1.7003,-1.9049,3.497
33.4190,1.6456,-0.4781,0.6253,1.824
33.4210,0.3607,0.9725,2.2332,2.462
33.4280,-0.6500,1.8164,2.9888,3.557
33.4320,-2.9895,1.8480,3.1505,4.720
33.4410,-4.4997,1.9957,3.6840,6.148
33.4490,-5.2992,2.4846,4.4866,7.375
33.4980,-4.9397,3.2227,5.1733,7.845
33.4990,-4.2438,3.8182,5.4090,7.864
33.5010,-4.3053,3.9534,3.8046,6.974
33.5050,-5.0410,3.2915,2.7371,6.613
33.5120,-5.9478,2.4191,2.4155,6.860
33.5140,-6.3545,1.7506,2.4085,7.017
33.5490,-5.1344,1.6669,3.8373,6.623
33.5570,-3.0387,2.9574,5.1885,6.701
33.5600,-3.2523,3.6186,4.7099,6.772
33.5640,-4.5022,3.4844,2.3276,6.150
33.5660,-5.1712,2.7240,-0.1846,5.848
33.5710,-4.8404,0.6106,-1.2992,5.049
33.5800,-2.8312,-1.6146,-2.5177,4.118
33.5940,2.1834,-6.4900,-1.2633,6.963
33.6010,12.7974,-14.1055,0.8752,19.066
33.6500,16.4094,-17.9119,0.6389,24.301
33.6580,12.0451,-20.8440,-0.5018,24.079
33.6600,7.8163,-20.8957,-1.7073,22.375
33.6620,4.3790,-16.5456,-1.3354,17.167
33.6650,2.9785,-10.7595,-1.5408,11.270
33.6660,1.3079,-6.8728,-3.3578,7.760
33.7100,-1.3003,-5.5555,-7.8445,9.700
33.7110,-5.0274,-4.3774,-16.2123,17.529
33.7120,-10.0872,-3.6297,-23.1717,25.531
33.7120,-10.8079,-2.2327,-23.6263,26.077
33.7130,-7.6111,0.0285,-21.2901,22.610
33.7660,-3.6129,1.0133,-13.1606,13.685
33.7810,-2.2365,0.8767,-7.5117,7.886
33.7850,0.2280,1.6162,-4.5530,4.837
33.7900,2.1871,3.1953,-1.2445,4.067
33.7940,3.9110,3.8341,1.3932,5.651
33.7970,5.6490,4.2762,4.9902,8.666
33.7990,6.3382,4.5518,8.3722,11.445
33.8020,6.7898,5.1059,10.8259,13.761
33.8030,7.5729,5.9641,10.8769,14.534
33.8230,8.5271,5.9979,6.8533,12.476
33.8240,8.0383,3.9779,0.7985,9.004
33.8290,5.8006,1.3646,-9.0813,10.862
33.8430,4.4847,-0.0230,-14.4805,15.159
33.8730,3.0932,-1.0566,-12.7088,13.122
33.8750,2.7886,-1.1432,-9.7391,10.195
33.8760,2.7484,-1.1600,-9.7939,10.238
33.8800,0.9502,0.1918,-4.8370,4.933
33.9250,-0.5936,0.5713,-3.3105,3.411
33.9290,-0.6542,0.6675,-3.2030,3.337
33.9320,-4.5926,-0.1176,-2.4200,5.192
33.9340,-5.8930,-0.7624,-1.7103,6.183
33.9380,-6.2508,-1.9685,0.2203,6.557
33.9420,-6.0723,-3.5544,2.9119,7.615
33.9540,-5.4566,-5.4064,5.5399,9.471
33.9610,-1.7677,-5.7888,5.4939,8.174
34.0060,2.4210,-5.7091,4.4880,7.655
34.0110,2.8447,-6.7129,3.0714,7.911
34.0130,2.4039,-9.8650,5.9443,11.766
34.0140,2.0279,-17.6849,10.7788,20.810
34.0160,7.0371,-21.7890,-1.3386,22.936
34.0330,13.1164,-11.0946,-13.3106,21.733
34.0370,14.4993,-1.0627,-16.0880,21.684
34.0890,13.8878,0.1180,-15.7602,21.006
34.0900,12.0710,-2.1599,-14.9465,19.333
34.0910,10.6863,-3.6098,-12.6668,16.961
34.0920,9.8118,-4.0944,-9.0706,13.975
34.0930,8.6187,-4.4069,-5.4879,11.127
34.0940,7.3720,-4.2525,-3.4646,9.189
34.1530,7.1630,-3.0083,-2.3054,8.104
34.1600,7.7922,-1.8758,0.0763,8.015
34.1630,8.4780,-1.1324,7.2022,11.182
34.1650,8.5654,-0.9500,8.6675,12.223
34.1670,8.0983,-0.5190,9.8664,12.775
34.1690,8.3523,0.6497,8.5273,11.954
34.1710,7.7950,2.3196,6.1709,10.209
34.1740,6.7244,3.3433,3.3240,8.212
34.1840,4.5359,3.3592,0.9969,5.732
34.2620,2.6868,2.8553,-0.3517,3.936
34.2680,0.6425,2.2310,-2.5648,3.460
34.2720,-1.0908,1.8783,-5.6049,6.011
34.2740,-1.8006,1.3858,-9.9233,10.180
34.2780,1.7690,1.0832,-12.7633,12.931
34.2820,5.3263,0.8767,-7.5791,9.305
34.2850,6.4175,0.2442,-3.9158,7.522
34.2880,4.5640,-0.6807,-0.4174,4.633
34.2920,2.0441,-1.2581,0.2059,2.409
34.2940,-0.1175,-1.3293,-1.5322,2.032
34.2960,-1.6030,-1.4097,-3.0122,3.692
34.3180,-2.1305,-1.2978,-1.1081,2.730
34.3260,-2.4618,-0.7430,2.8112,3.810
34.3290,-4.0786,0.8704,5.4511,6.863
34.3310,-5.8221,2.6694,6.9023,9.416
34.3430,-6.5148,3.6704,5.5550,9.315
34.3490,-5.5816,3.7956,3.6230,7.661
34.3950,-3.6149,2.9561,3.1797,5.649
34.4010,-3.0471,1.8731,3.4734,4.986
34.4070,-3.8929,1.4549,3.3282,5.324
34.4100,-4.4732,1.5788,2.9198,5.570
34.4130,-4.2634,2.5949,3.9873,6.388
34.4220,-4.1461,3.8668,4.9620,7.534
34.4470,-4.2902,4.1366,4.0012,7.178
34.4470,-4.4747,3.5977,0.1049,5.743
34.4480,-3.5672,3.1010,-2.7092,5.448
34.4490,-3.1490,1.1449,-3.1206,4.579
34.4610,-1.9491,-0.6337,-1.0524,2.304
34.4740,2.1027,-6.1279,0.4229,6.492
34.4800,11.9739,-14.4671,1.4385,18.835
34.5340,15.4231,-20.9107,-0.8117,25.996
34.5420,10.3455,-23.5455,-3.7830,25.995
34.5450,5.8248,-21.9047,-3.4257,22.923
34.5470,3.8642,-15.8241,-2.7720,16.523
34.5490,1.2894,-10.2402,-3.4572,10.885
34.5510,-1.5301,-7.9431,-4.0294,9.037
34.5590,-3.2846,-6.5071,-9.2559,11.781
34.5620,-5.3832,-4.9263,-15.7199,17.331
34.5830,-6.6434,-3.4496,-18.8458,20.278
34.5840,-4.3551,-2.3053,-18.5079,19.153
34.6410,-2.9458,-0.5994,-16.8129,17.080
34.6490,-2.4170,-0.2081,-14.3223,14.526
34.6510,-0.7364,0.9586,-10.9773,11.044
34.6530,-0.1610,1.8169,-6.9545,7.190
34.6560,0.9183,2.5591,-3.6252,4.531
34.6580,2.7568,3.2342,-0.2872,4.259
34.6600,4.1124,3.6708,2.8129,6.189
34.6620,5.1147,4.0872,5.9273,8.832
34.6800,6.2296,4.4384,7.9313,11.019
34.6830,8.9130,5.2544,8.2527,13.235
