time,ax,ay,az,aT
0.8420,-0.0720,0.0921,-0.1115,0.162
0.8460,-0.0867,0.0794,-0.1812,0.216
0.8580,-0.0553,0.0794,-0.2195,0.240
0.8670,-0.1262,0.0323,-0.3346,0.359
0.8780,-0.1933,-0.0361,-0.3797,0.428
0.8860,-0.0808,-0.0390,-0.3411,0.353
0.8970,0.1259,-0.0241,-0.1277,0.181
0.9070,0.2868,-0.0673,0.0567,0.300
0.9180,-0.2490,-0.1527,0.4463,0.533
0.9260,-0.4081,-0.1280,0.3395,0.546
0.9360,-0.2884,-0.0089,0.0550,0.294
0.9470,-0.2787,-0.0134,0.0583,0.285
0.9580,0.0424,0.1159,-0.2521,0.281
0.9670,0.2193,-0.0415,-0.3667,0.429
0.9780,0.2192,-0.1793,-0.3230,0.430
0.9860,0.2192,-0.1790,-0.3231,0.430
0.9980,0.1292,-0.1703,-0.3456,0.406
1.0070,0.0491,-0.0725,-0.1685,0.190
1.0190,-0.7335,-0.0657,0.0588,0.739
1.0300,-0.1017,0.4663,-0.0290,0.478
1.0390,0.2214,0.6934,0.2326,0.764
1.0470,0.0004,0.2636,0.9726,1.008
1.0570,-0.3144,-0.3475,0.9343,1.045
1.0650,-0.0988,-0.5671,0.5262,0.780
1.0780,0.1277,-0.2489,0.3606,0.456
1.0860,0.0671,0.0530,0.2178,0.234
1.1000,-0.1900,0.0971,0.0069,0.214
1.1110,-0.3375,0.1421,-0.2770,0.459
1.1180,-0.2979,0.1974,-0.5706,0.673
1.1270,-0.1538,0.2535,-0.8966,0.944
1.1380,0.0059,0.2171,-0.9360,0.961
1.1470,0.1167,0.0419,-0.8190,0.828
1.1590,0.2076,-0.1247,-0.5500,0.601
1.1680,0.2522,-0.1616,0.2112,0.367
1.1780,0.1711,-0.1953,0.8012,0.842
1.1850,0.3118,-0.0591,0.5478,0.633
1.1960,0.2634,0.0938,0.1511,0.318
1.2100,-0.0819,0.0935,0.2368,0.267
1.2170,-0.2316,0.0407,0.4812,0.536
1.2280,-0.1422,0.0604,0.5246,0.547
1.2390,0.0080,0.0843,0.4292,0.437
1.2460,0.2479,0.0727,0.1206,0.285
1.2580,0.1871,0.0122,-0.0918,0.209
1.2660,-0.0388,-0.0954,-0.2022,0.227
1.2780,-0.0390,-0.1444,-0.2183,0.265
1.2860,0.0151,-0.0802,-0.0563,0.099
1.2980,-0.0417,-0.0219,0.0689,0.083
1.3090,-0.0896,0.0065,0.0829,0.122
1.3160,-0.1499,-0.0065,-0.0152,0.151
1.3290,-0.0333,-0.0095,-0.2962,0.298
1.3370,0.1040,-0.0336,-0.4725,0.485
1.3470,0.0479,-0.0545,-0.4766,0.482
1.3580,-0.2711,-0.0827,-0.6447,0.704
1.3650,-0.6095,-0.2788,-1.4850,1.629
1.3780,-0.6879,-0.1027,-0.7277,1.007
1.3850,-0.8829,-0.0489,-0.1840,0.903
1.3960,-0.7411,0.0803,-0.4193,0.855
1.4110,-0.2774,0.2661,-0.4137,0.565
1.4170,-0.1391,0.3043,0.0783,0.344
1.4280,-0.4265,0.1974,0.4305,0.637
1.4400,-0.8323,0.0375,0.4887,0.966
1.4470,-0.8949,0.1434,0.4959,1.033
1.4620,-0.5480,0.4485,0.4942,0.864
1.4710,-0.3539,0.5574,0.3145,0.731
1.4760,-0.7312,0.7901,0.0791,1.079
1.4850,-0.6161,0.6202,-0.4820,0.998
1.4960,-0.1544,0.2333,-0.9856,1.025
1.5070,0.4385,-0.0085,-0.5026,0.667
1.5160,0.8518,-0.3709,-0.4122,1.016
1.5260,1.0243,-0.7486,-0.5441,1.380
1.5360,1.2867,-0.6620,0.1386,1.454
1.5470,2.0820,-0.5320,0.8921,2.327
1.5600,2.0947,-0.8203,0.6786,2.350
1.5660,1.3643,-0.8894,0.3826,1.673
1.5770,0.6886,-0.8115,-0.0152,1.064
1.5850,0.3704,-0.5629,0.0470,0.675
1.5970,0.2204,-0.2958,0.1453,0.396
1.6080,0.0352,-0.1864,0.2334,0.301
1.6160,-0.0016,-0.0689,0.3589,0.365
1.6270,0.1497,0.0781,0.4660,0.496
1.6360,0.2299,0.0829,0.4533,0.515
1.6460,0.0668,0.0017,0.3468,0.353
1.6580,-0.0783,-0.0382,0.1108,0.141
1.6650,-0.0203,0.0984,-0.2487,0.268
1.6780,-0.0649,0.1660,-0.4222,0.458
1.6860,-0.2801,0.1006,-0.3991,0.498
1.6960,-0.3226,0.0538,-0.2894,0.437
1.7060,-0.1562,0.0811,-0.2903,0.339
1.7160,-0.1208,0.0645,-0.3647,0.390
1.7270,-0.2557,-0.0485,-0.3204,0.413
1.7360,-0.2618,-0.0514,-0.1700,0.316
1.7460,-0.2360,-0.0230,-0.0546,0.243
1.7580,-0.2560,-0.0234,-0.0278,0.259
1.7650,-0.2688,-0.0431,0.0692,0.281
1.7780,-0.1953,-0.0850,0.0929,0.232
1.7860,-0.0902,-0.1197,-0.0150,0.151
1.7990,0.0243,-0.1184,-0.0278,0.124
1.8080,0.0975,-0.1445,0.0007,0.174
1.8190,0.1116,-0.1310,-0.0014,0.172
1.8260,0.0513,-0.1248,-0.0197,0.136
1.8450,-0.0360,-0.0904,-0.0639,0.116
1.8460,-0.0847,0.0104,-0.0937,0.127
1.8580,-0.1617,-0.0368,-0.0340,0.169
1.8670,-0.1642,-0.0888,-0.0634,0.197
1.8770,-0.0650,-0.1039,-0.0741,0.143
1.8850,0.0233,-0.1172,0.0825,0.145
1.8960,0.1015,-0.1252,0.2821,0.325
1.9060,0.0672,-0.1137,0.3693,0.392
1.9170,-0.0555,-0.1611,0.1684,0.240
1.9290,-0.0540,-0.1485,-0.0664,0.171
1.9370,0.0109,-0.1451,-0.1668,0.221
1.9450,0.1084,-0.1725,-0.2591,0.330
1.9590,0.1375,-0.1950,-0.3053,0.387
1.9650,0.0935,-0.2059,-0.1787,0.288
1.9810,0.0790,-0.1780,0.0341,0.198
1.9860,0.0693,-0.1385,0.1181,0.195
1.9970,0.0722,-0.0604,0.1289,0.160
2.0050,-0.0142,-0.0591,0.1042,0.121
2.0160,-0.0406,-0.0562,0.0864,0.111
2.0260,0.0076,-0.0057,0.0086,0.013
2.0360,-0.0023,-0.0109,-0.1589,0.159
2.0460,0.0719,0.0087,-0.3280,0.336
2.0580,0.0727,0.0061,-0.4201,0.426
2.0650,0.0258,-0.0171,-0.3591,0.360
2.0780,-0.0387,-0.0241,-0.2223,0.227
2.0860,-0.0581,0.0055,-0.0875,0.105
2.0990,-0.0313,0.0410,-0.0396,0.065
2.1090,0.0347,0.0377,-0.1023,0.114
2.1180,0.0701,0.0449,-0.0586,0.102
2.1280,0.1618,0.0813,-0.0282,0.183
2.1370,0.1346,0.0352,-0.1008,0.172
2.1470,-0.0368,-0.0213,-0.1757,0.181
2.1580,-0.1269,-0.0619,-0.2504,0.287
2.1670,0.0266,-0.0314,-0.2941,0.297
2.1790,0.1033,-0.0371,-0.1658,0.199
2.1850,0.0904,-0.0868,0.0229,0.127
2.1980,0.0365,-0.1205,0.1294,0.181
2.2070,0.1329,-0.0960,0.1354,0.213
2.2180,0.2437,-0.0782,0.0883,0.271
2.2310,0.2144,-0.1055,0.0193,0.240
2.2400,0.0810,-0.1234,-0.0037,0.148
2.2490,0.0290,-0.1155,-0.0717,0.139
2.2610,0.0405,-0.1019,-0.1373,0.176
2.2660,0.1393,-0.0642,-0.1157,0.192
2.2790,0.2072,-0.0899,-0.1043,0.249
2.2860,0.1616,-0.1805,-0.1365,0.278
2.2980,0.1479,-0.2162,-0.0746,0.272
2.3050,0.1665,-0.1294,0.0518,0.217
2.3160,0.1849,-0.0123,0.1791,0.258
2.3290,0.0685,0.0600,0.4000,0.410
2.3370,0.0466,0.1228,0.5638,0.579
2.3470,-0.0580,0.1438,0.5107,0.534
2.3580,-0.0759,0.1559,0.3504,0.391
2.3660,0.0523,0.0797,0.1089,0.145
2.3780,0.0956,-0.0679,-0.1309,0.176
2.3850,0.0492,-0.1354,-0.2449,0.284
2.3970,0.0674,-0.0896,-0.3931,0.409
2.4050,0.1027,-0.0455,-0.6117,0.622
2.4170,0.0803,-0.0683,-0.5215,0.532
2.4280,-0.0038,-0.1098,-0.2416,0.265
2.4380,-0.0307,-0.0930,-0.1262,0.160
2.4460,-0.0201,-0.0396,-0.1145,0.123
2.4590,0.0603,0.0258,-0.0844,0.107
2.4660,0.1464,0.0681,0.0616,0.173
2.4790,0.1503,0.0300,0.1440,0.210
2.4850,0.1368,-0.0527,0.1245,0.192
2.4990,0.1106,-0.0926,0.0202,0.146
2.5060,0.0550,-0.0840,-0.1652,0.193
2.5180,0.0540,-0.0199,-0.3306,0.336
2.5320,0.0697,-0.0003,-0.3033,0.311
2.5380,0.0861,-0.0763,-0.2231,0.251
2.5490,0.1416,-0.1617,-0.1835,0.283
2.5580,0.2155,-0.2452,-0.1388,0.355
2.5660,0.2851,-0.2580,-0.1366,0.408
2.5810,0.2815,-0.3196,-0.1957,0.469
2.5870,0.1386,-0.3302,-0.0969,0.371
2.5990,-0.0343,-0.2882,0.3051,0.421
2.6080,-0.2436,-0.3023,0.6067,0.720
2.6180,-0.3446,-0.2353,0.8360,0.934
2.6330,-0.1976,-0.1041,0.8041,0.834
2.6380,0.0917,0.0540,0.4855,0.497
2.6530,0.2583,0.1010,0.1898,0.336
2.6580,0.2376,-0.0030,-0.2500,0.345
2.6670,0.1218,-0.1040,-0.7874,0.803
2.6820,0.1697,-0.1386,-1.3395,1.357
2.6860,0.1751,-0.1527,-1.5436,1.561
2.6990,-0.0963,-0.1955,-1.2745,1.293
2.7070,-0.4536,-0.2386,-0.7656,0.921
2.7220,-0.7196,-0.0383,-0.4617,0.856
2.7340,-1.3029,0.0522,0.3058,1.339
2.7380,-1.1669,0.3344,0.8810,1.500
2.7500,-0.4037,0.6133,0.6936,1.010
2.7560,-0.3449,0.4654,0.2814,0.644
2.7680,-0.5131,0.2250,0.0236,0.561
2.7790,-0.4861,0.1002,-0.0911,0.505
2.7850,-0.1763,0.1336,-0.3309,0.398
2.7990,0.1851,0.1055,-0.3960,0.450
2.8070,0.2247,-0.0458,-0.1424,0.270
2.8190,0.2422,-0.1218,0.1567,0.313
2.8290,0.2155,-0.1026,0.2969,0.381
2.8460,0.2880,-0.1049,0.3964,0.501
2.8470,0.4899,-0.1626,0.4775,0.703
2.8600,0.5475,-0.2615,0.3847,0.718
2.8690,0.4397,-0.2711,0.2609,0.579
2.8880,0.3267,-0.2196,0.2204,0.451
2.8890,0.2557,-0.1119,0.2304,0.362
2.8980,0.2358,-0.0379,0.2839,0.371
2.9070,0.1500,-0.0080,0.3298,0.362
2.9160,0.0492,-0.0105,0.2168,0.223
2.9280,0.0096,0.0119,-0.0690,0.071
2.9370,-0.0034,0.0342,-0.2651,0.267
2.9480,-0.0172,0.0600,-0.4043,0.409
2.9600,0.0017,0.0830,-0.4421,0.450
2.9710,0.0247,0.0674,-0.4403,0.446
2.9790,0.0549,0.0102,-0.3979,0.402
2.9900,0.0405,-0.1499,-0.2775,0.318
3.0000,-0.0045,-0.1830,-0.1341,0.227
3.0070,0.0197,-0.1386,-0.0346,0.144
3.0170,0.0755,-0.0900,0.0097,0.118
3.0260,0.0152,-0.0977,-0.0143,0.100
3.0360,-0.0680,-0.1473,-0.0598,0.173
3.0460,-0.0978,-0.2168,-0.0358,0.241
3.0570,-0.0161,-0.2424,-0.0766,0.255
3.0660,0.0569,-0.2149,-0.2039,0.302
3.0790,0.0565,-0.1978,-0.2787,0.346
3.0850,0.0264,-0.1584,-0.3227,0.360
3.0970,0.0967,-0.1107,-0.3048,0.338
3.1060,0.1859,-0.0797,-0.2528,0.324
3.1210,0.1546,-0.0461,-0.1799,0.242
3.1380,0.1353,-0.0631,-0.1361,0.202
3.1380,0.0480,-0.0899,-0.0925,0.138
3.1490,-0.0320,-0.0785,-0.0094,0.085
3.1610,-0.0713,-0.0386,0.0152,0.082
3.1670,-0.1326,-0.0085,0.0494,0.142
3.1810,-0.0841,0.0201,0.2142,0.231
3.1870,0.0090,0.0404,0.3609,0.363
3.1980,0.0554,-0.0044,0.3821,0.386
3.2110,0.0232,-0.0087,0.2540,0.255
3.2160,-0.0168,-0.0164,0.0671,0.071
3.2360,-0.1189,0.0158,-0.0663,0.137
3.2390,-0.1267,0.0318,-0.0987,0.164
3.2480,-0.1220,0.0608,-0.1101,0.175
3.2590,-0.1485,0.0648,0.0119,0.162
3.2660,-0.1704,0.0301,0.1759,0.247
3.2810,-0.0886,0.0619,0.3210,0.339
3.2870,0.0298,0.1215,0.3889,0.409
3.2970,0.1777,0.1195,0.3043,0.372
3.3060,0.2804,0.0715,0.1288,0.317
3.3200,0.2034,-0.0699,-0.1772,0.279
3.3330,0.1022,-0.1887,-0.3697,0.427
3.3390,-0.5841,-0.2972,0.9079,1.120
3.3540,-0.2317,-0.0535,0.7779,0.813
3.3570,0.1182,0.2448,-0.3120,0.414
3.3660,0.0220,0.2082,-0.8408,0.866
3.3770,-0.0988,-0.0241,-0.8789,0.885
3.3860,-0.0634,-0.1673,-0.6160,0.641
3.4540,0.1515,-0.2204,-0.0690,0.276
3.4540,0.3408,-0.2083,0.3360,0.522
3.4550,0.3717,-0.2317,0.2545,0.507
3.4550,0.2355,-0.2012,-0.3138,0.441
3.4550,0.0973,-0.1276,-0.7868,0.803
3.4560,-0.0463,-0.0853,-0.9831,0.988
3.4590,-0.1661,-0.0318,-0.6846,0.705
3.4660,-0.0754,-0.0104,-0.2501,0.261
3.4840,-0.0026,-0.0071,-0.0995,0.100
3.4910,0.0453,-0.0214,-0.0303,0.059
3.4990,0.0485,-0.0488,0.0258,0.073
3.5060,0.1434,-0.0749,0.1574,0.226
3.5180,0.2142,-0.0418,0.2811,0.356
3.5250,0.1655,-0.0270,0.4462,0.477
3.5360,0.0654,-0.0535,0.6026,0.609
3.5460,-0.0413,-0.0890,0.5403,0.549
3.5560,-0.1012,-0.0979,0.3302,0.359
3.5670,-0.1235,-0.0812,0.1070,0.182
3.5810,-0.1963,-0.0362,0.0164,0.200
3.5910,-0.3452,0.0237,0.1317,0.370
3.5990,-0.2576,0.1373,0.4003,0.495
3.6060,-0.0187,0.2447,0.4947,0.552
3.6230,0.0160,0.1919,0.4528,0.492
3.6330,-0.0798,0.1023,0.3476,0.371
3.6370,-0.1380,0.0958,0.2654,0.314
3.6480,-0.1740,0.1433,0.2466,0.334
3.6570,-0.0854,0.1913,0.2937,0.361
3.6680,0.0911,0.2755,0.3573,0.460
3.6800,0.1331,0.1925,0.2870,0.370
3.6880,0.0071,0.0176,0.1500,0.151
3.7010,-0.0645,-0.0601,-0.0393,0.097
3.7080,-0.0837,-0.1020,-0.1877,0.229
3.7210,-0.0911,-0.0853,-0.1353,0.184
3.7310,-0.0672,-0.0488,-0.1242,0.149
3.7390,-0.0260,0.0210,-0.0602,0.069
3.7510,-0.0441,0.0271,0.0488,0.071
3.7590,0.0094,0.0161,0.1816,0.183
3.7780,0.0384,-0.0308,0.1861,0.192
3.7830,0.0316,-0.0344,0.1871,0.193
3.7870,-0.0554,-0.0581,0.0854,0.117
3.8030,0.0171,0.1067,0.0254,0.111
3.8150,0.1154,0.0627,-0.1050,0.168
3.8210,0.0753,-0.0767,-0.2618,0.283
3.8490,0.0682,-0.1616,-0.4122,0.448
3.8790,0.1247,-0.1401,-0.4563,0.493
3.8790,-0.0177,-0.1057,-0.2617,0.283
3.8890,-0.0227,-0.0990,-0.2645,0.283
3.8890,-0.3393,0.0739,1.0306,1.087
3.8900,-0.3517,0.0891,1.0243,1.087
3.8910,0.2894,0.0229,0.3286,0.438
3.8990,0.1601,-0.1383,0.1500,0.259
3.9190,0.0906,-0.1903,0.1395,0.253
3.9250,0.0785,-0.1495,0.1397,0.219
3.9270,0.0712,-0.1474,0.1387,0.215
3.9400,0.0851,-0.0867,0.1593,0.200
3.9500,0.0328,-0.1238,0.0761,0.149
3.9570,-0.0267,-0.1382,-0.1490,0.205
3.9700,-0.0248,-0.1092,-0.3140,0.333
3.9810,-0.0324,-0.0470,-0.3736,0.378
4.0050,-0.0312,-0.0303,-0.2828,0.286
4.0100,-0.0416,-0.0362,-0.0674,0.087
4.0110,-0.0541,-0.0549,0.0549,0.095
4.0340,-0.0387,-0.0346,0.1479,0.157
4.0350,0.0083,-0.0096,0.1799,0.180
4.0380,0.0335,-0.0025,0.1573,0.161
4.0460,-0.0092,-0.0283,0.0959,0.100
4.0620,-0.0367,-0.0353,0.0986,0.111
4.0770,-0.1212,-0.0198,0.1618,0.203
4.0870,-0.1419,-0.0245,0.2296,0.271
4.1030,-0.0955,-0.0184,0.2436,0.262
4.1070,0.0107,-0.0177,0.1979,0.199
4.1110,0.1487,-0.0489,0.1320,0.205
4.1300,0.1905,-0.0693,0.0673,0.214
4.1320,0.2295,-0.1180,0.0383,0.261
4.1370,0.2451,-0.1009,0.1011,0.284
4.1470,0.2496,-0.0970,0.0855,0.281
4.1650,0.2229,-0.0952,0.0898,0.259
4.1800,0.1458,-0.0746,0.1645,0.232
4.1800,0.1064,-0.0497,0.1372,0.181
4.1980,0.0110,-0.0741,0.0979,0.123
4.2020,-0.0916,-0.1147,0.0206,0.148
4.2090,-0.0945,-0.1104,0.0190,0.147
4.2240,0.0187,-0.0082,0.1074,0.109
4.2420,0.0611,-0.0014,0.2255,0.234
4.2430,0.0749,0.0123,0.2349,0.247
4.2490,0.0590,0.0049,0.1823,0.192
4.2690,0.0601,0.0142,0.1205,0.135
4.2700,-0.0032,0.0280,0.0688,0.074
4.2780,-0.0031,0.0278,0.0688,0.074
4.2870,-0.0711,0.0277,0.0921,0.120
4.2970,-0.1229,0.0492,0.2630,0.294
4.3290,-0.1295,0.0759,0.2742,0.313
4.3340,-0.1006,0.1339,0.1334,0.214
4.3360,-0.1046,0.1412,0.0911,0.198
4.3380,-0.2860,0.0484,0.1806,0.342
4.3480,-0.2940,-0.0580,0.2372,0.382
4.3730,-0.2430,-0.1005,0.3911,0.471
4.3760,-0.1990,-0.1161,0.3033,0.381
4.3920,-0.0745,-0.1684,0.0281,0.186
4.3950,0.0615,-0.1536,-0.1129,0.200
4.4070,0.2060,-0.1204,-0.2565,0.350
4.4070,0.2951,-0.0758,-0.3182,0.441
4.4190,0.3717,0.0121,-0.2790,0.465
4.4260,0.3870,0.1353,-0.1488,0.436
4.4410,0.2859,0.2361,0.1613,0.404
4.4580,0.1039,0.2257,0.4039,0.474
4.4620,-0.1262,0.2085,0.5392,0.592
4.4670,-0.1747,0.1651,0.6319,0.676
4.4800,-0.0532,0.2253,0.7738,0.808
4.4850,0.0830,0.2397,1.1500,1.178
4.5220,0.1882,0.2442,1.5421,1.573
4.5240,0.3933,-0.1719,1.4966,1.557
4.5260,1.2646,-0.6614,0.8002,1.636
4.5290,3.1246,-1.1179,-6.3407,7.157
4.5390,2.5032,-1.3296,-3.5724,4.560
4.5470,0.2719,-0.4102,2.6078,2.654
4.5580,-1.4295,-0.0559,3.9668,4.217
4.5690,-1.8503,0.5030,3.4565,3.953
4.5790,-1.3462,0.8702,2.6716,3.116
4.5870,-0.5231,1.2907,2.5005,2.862
4.5990,1.1802,0.3690,0.3702,1.291
4.6060,-0.5427,-0.4534,1.5575,1.711
4.6190,-2.4229,0.4051,2.8812,3.786
4.6380,-2.4387,1.2529,0.4354,2.776
4.6400,-1.8030,1.7688,-2.0256,3.238
4.6590,-0.2227,2.0024,-1.9319,2.791
4.6660,0.5413,1.1437,-0.9808,1.601
4.6680,0.4402,0.1181,-0.4939,0.672
4.6760,0.3772,-0.2049,-0.8889,0.987
4.6860,0.4761,0.1789,-2.4726,2.524
4.7050,1.3753,0.4815,-1.9934,2.469
4.7060,3.1850,0.2514,0.9496,3.333
4.7190,0.5408,0.2028,3.3313,3.381
4.7280,-1.9605,0.6285,3.9385,4.444
4.7480,-1.6860,0.5062,2.0760,2.722
4.7500,-0.0690,0.2336,-0.9420,0.973
4.7890,0.0909,0.2375,-1.1227,1.151
4.7920,-0.1479,0.2559,-1.5021,1.531
4.7950,-0.3338,0.0223,-1.7687,1.800
4.7950,-0.2374,-0.0211,-1.1897,1.213
4.7990,-0.1018,-0.1604,-0.7625,0.786
4.8060,-0.1754,-0.0712,-0.7009,0.726
4.8170,-0.3369,0.0622,-0.8641,0.930
4.8300,-0.8932,-0.0793,-0.8111,1.209
4.8390,-1.1850,-0.3146,-0.6534,1.389
4.8460,-0.7128,-0.2882,-0.8536,1.149
4.8570,-0.2604,-0.1564,-1.2911,1.326
4.8790,0.0453,0.0131,-1.6530,1.654
4.8800,0.1550,0.1813,-1.7302,1.747
4.8870,0.0138,0.1416,-1.5810,1.587
4.8980,-0.2571,-0.0676,-1.1429,1.173
4.9050,-0.6533,-0.3772,-0.3802,0.845
4.9370,-0.9459,-0.6511,0.3629,1.204
4.9390,-1.0057,-0.8062,0.8150,1.525
4.9480,-0.9342,-0.8119,0.7832,1.465
4.9530,-0.6642,-0.7098,0.4347,1.065
4.9580,-0.3333,-0.5410,0.1573,0.655
4.9660,-0.1954,-0.3960,-0.0990,0.453
4.9810,-0.2593,-0.4362,-0.2352,0.559
4.9860,-0.5132,-0.5653,-0.2162,0.794
5.0010,-0.5494,-0.6362,-0.3708,0.919
5.0060,-0.2061,-0.5875,-0.5717,0.845
5.0170,0.3179,-0.2238,-0.6019,0.717
5.0260,0.6530,0.1715,-0.6699,0.951
5.0370,0.8323,0.4899,-0.7635,1.231
5.0490,0.8370,0.5780,-0.7950,1.291
5.0570,0.6288,0.4390,-0.7753,1.091
5.0680,0.4010,0.2594,-0.8878,1.008
5.0790,0.1430,-0.0482,-1.0352,1.046
5.0890,0.1627,0.0001,-1.0512,1.064
5.1110,-0.1257,-0.3676,-1.3418,1.397
5.1140,-0.1484,-0.3881,-1.6748,1.726
5.1180,-0.0612,-0.3859,-2.2079,2.242
5.1250,-0.1560,-0.3744,-2.6771,2.708
5.1390,-0.2263,-0.4334,-2.7169,2.761
5.1480,0.4008,-0.1615,0.2473,0.498
5.1560,3.2243,1.0997,10.3052,10.854
5.1710,1.3039,1.8009,5.4273,5.865
5.1770,-0.5901,1.0593,-2.5404,2.815
5.1860,-1.4252,-0.1074,-2.9712,3.297
5.2040,-2.2801,-1.0025,-2.2428,3.352
5.2090,-3.0738,-1.2851,-2.1021,3.939
5.2170,-3.2367,-1.3106,-2.0939,4.072
5.2260,-2.5858,-0.9874,-2.4296,3.683
5.2400,0.0824,0.2800,-3.1573,3.171
5.2450,1.0697,0.9187,-3.0994,3.405
5.2570,-0.2025,0.2067,-2.8258,2.841
5.2720,-1.1626,-0.9139,-2.8394,3.201
5.2770,-1.7999,-1.6462,-2.9795,3.851
5.2850,-2.4845,-1.1581,-2.4548,3.680
5.3080,-2.4747,-0.8681,-2.2058,3.427
5.3100,-2.5867,-1.7286,-3.4661,4.658
5.3200,-4.0485,-2.0242,-3.6040,5.786
5.3300,-5.0814,-1.4896,-3.3631,6.273
5.3390,-5.2395,-0.8909,-2.8777,6.044
5.3460,-4.3685,-0.7387,-2.5037,5.089
5.3570,-3.2106,-0.8195,-2.3664,4.072
5.3650,-3.0010,-1.2058,-1.2316,3.461
5.3760,-3.0100,-1.6551,-0.9364,3.560
5.3870,-3.1108,-1.7967,-1.1425,3.770
5.3980,-2.4559,-1.5191,-1.2517,3.147
5.4080,-2.6954,-1.5954,-2.7406,4.162
5.4220,-2.3313,-1.7264,-3.0894,4.238
5.4330,-1.1182,-1.7691,-1.9587,2.866
5.4420,0.4075,-1.8390,-1.3085,2.293
5.4520,0.9809,-2.6031,-1.1128,2.996
5.4570,0.2043,-3.3618,-5.1491,6.153
5.4680,-0.4704,-3.8820,-2.6807,4.741
5.4760,-1.0397,-2.6355,-5.3099,6.018
5.4860,-1.3151,-1.3930,-7.9584,8.186
5.5040,-1.1156,-1.2172,-8.6497,8.806
5.5100,-1.2554,-2.5183,-7.0165,7.560
5.5180,-1.6399,-3.8119,-5.6559,7.015
5.5250,-1.5678,-5.2075,-2.6441,6.047
5.5430,-1.0259,-5.4636,-1.4653,5.749
5.5530,-0.7520,-6.3179,0.7539,6.407
5.5590,0.6887,-7.6207,2.1805,7.956
5.5670,2.7649,-8.3671,3.1404,9.355
5.5790,3.0988,-8.3668,1.8424,9.110
5.5860,2.5917,-7.3278,0.0212,7.773
5.5980,2.0584,-6.4868,-1.9048,7.067
5.6050,1.8965,-6.6213,-2.2880,7.258
5.6180,2.0557,-7.6816,-1.4008,8.074
5.6280,2.1717,-8.3626,-0.2174,8.643
5.6370,1.8524,-8.8156,2.3977,9.322
5.6450,1.5545,-9.0557,4.9544,10.439
5.6570,2.1537,-8.8321,7.0320,11.493
5.6710,1.9319,-8.2899,7.6505,11.445
5.6770,0.0498,-7.4771,8.1090,11.030
5.6860,-1.7298,-6.4899,7.6086,10.149
5.6980,-1.7444,-5.6040,7.6606,9.651
5.7050,-1.5794,-5.2976,8.2453,9.927
5.7180,-2.4183,-5.3588,8.9191,10.683
5.7250,-3.9013,-4.9765,10.0225,11.851
5.7380,-5.5989,-3.7911,10.5145,12.501
5.7490,-6.1665,-2.4378,9.4389,11.535
5.7570,-6.6987,-0.7589,7.8999,10.385
5.7670,-5.5435,0.1032,7.2486,9.126
5.7760,-4.6064,0.8672,6.7933,8.253
5.7850,-4.6280,1.5922,7.0894,8.615
5.8050,-5.1524,2.0655,7.4217,9.268
5.8070,-5.9308,2.3876,6.7258,9.280
5.8160,-6.4752,2.8688,5.0725,8.711
5.8250,-6.6745,3.5813,2.8639,8.098
5.8380,-6.4672,4.4487,0.6404,7.876
5.8460,-6.4160,5.3263,-1.2096,8.426
5.8560,-6.3883,5.1679,-4.7396,9.486
5.8660,-5.4492,4.8484,-6.3039,9.641
5.8760,-5.4154,5.0314,-5.0901,8.975
5.8850,-2.6769,4.5642,-1.4018,5.474
5.9040,-2.7841,3.9126,-0.0346,4.802
5.9120,-4.1950,3.1826,0.1801,5.269
5.9200,-6.0980,2.6653,0.4875,6.673
5.9260,-5.5348,2.5114,1.9993,6.398
5.9360,-5.1598,2.0355,-0.6751,5.588
5.9460,-3.7444,1.7703,-1.3274,4.349
5.9560,-1.8224,1.5838,-1.2570,2.722
5.9650,0.9515,1.0304,-0.8895,1.661
5.9760,2.6723,0.3670,-0.3181,2.716
5.9860,3.6554,-0.5563,1.6367,4.044
5.9960,2.7077,-1.4738,3.7614,4.863
6.0060,0.2364,-2.1067,4.8218,5.267
6.0160,-1.8913,-2.1502,4.5460,5.373
6.0250,-3.2581,-1.8012,2.7849,4.649
6.0370,-3.5136,-1.5033,0.5745,3.865
6.0450,-4.0641,-1.5924,-0.8410,4.445
6.0570,-3.6937,-1.6211,-1.5290,4.314
6.0680,-3.6704,-1.5806,-1.0738,4.138
6.0760,-3.7138,-1.4304,-0.6790,4.037
6.0860,-2.6837,-1.2559,0.0379,2.963
6.0960,-1.9173,-1.6408,0.6833,2.614
6.1070,-1.9776,-1.6133,0.7144,2.650
6.1180,-1.3657,-2.4552,2.3725,3.677
6.1270,-0.7924,-2.1883,2.6180,3.503
6.1370,-0.4554,-1.7431,1.2592,2.198
6.1460,-0.6835,-1.8164,0.0919,1.943
6.1570,-0.7204,-1.5125,-0.7274,1.826
6.1650,-0.5320,-0.8921,-1.5452,1.862
6.1770,-0.5430,-0.7739,-1.7528,1.991
6.1860,-0.8995,-0.7403,-1.0298,1.555
6.1960,-1.5730,-1.0001,-0.2877,1.886
6.2060,-1.7063,-1.0731,0.8019,2.169
6.2210,-2.2731,-0.9706,3.8063,4.538
6.2260,-0.3344,-0.3254,2.7830,2.822
6.2400,0.2589,0.1485,3.7646,3.776
6.2460,-0.8830,-1.0154,5.9532,6.103
6.2570,3.4218,0.6395,-0.4020,3.504
6.2670,3.3858,1.3932,-1.3106,3.889
6.2770,2.1039,0.7306,0.3497,2.254
6.2850,-0.2956,-0.2882,2.1718,2.211
6.2970,1.1118,0.7545,0.4083,1.404
6.3070,1.6657,1.2315,-1.1442,2.367
6.3170,-0.3001,0.3074,2.9872,3.018
6.3250,-0.3190,-1.5807,4.6247,4.898
6.3390,3.5382,3.1490,-6.0545,7.687
6.3460,3.0404,3.5152,-2.5417,5.297
6.3570,-0.2744,-0.2873,0.7497,0.848
6.3680,-2.4535,-2.8267,4.3493,5.738
6.3770,-0.2855,0.7469,1.0238,1.299
6.3860,2.5141,3.9350,-4.2238,6.296
6.3980,-0.3788,0.5586,-2.1059,2.211
6.4070,-1.7866,-0.4957,1.8795,2.640
6.4180,0.8558,1.0945,6.0627,6.220
6.4270,6.3652,5.2593,-3.1139,8.825
6.4370,3.2312,3.2750,-6.1081,7.647
6.4460,0.0709,1.8345,-3.1619,3.656
6.4560,0.4336,2.5172,-0.0362,2.555
6.4670,1.3364,2.9961,-0.5526,3.327
6.4770,2.5762,3.8797,-1.9093,5.033
6.4860,1.4456,3.9089,-1.6955,4.499
6.4970,0.9983,3.9797,-1.3862,4.331
6.5090,1.2875,3.8595,-1.8103,4.453
6.5240,1.1149,3.1811,-1.1434,3.559
6.5270,0.4845,1.8201,0.1524,1.890
6.5380,0.4088,0.5367,0.9300,1.149
6.5460,0.0588,-0.1012,1.4504,1.455
6.5570,-0.1975,0.0011,0.9386,0.959
6.5670,-0.1084,-0.0046,1.0089,1.015
6.5770,0.0185,-1.1794,-3.1203,3.336
6.5880,1.0897,0.8861,-4.1451,4.377
6.5970,1.0234,2.6319,-2.6238,3.855
6.6070,-1.1710,2.2566,-1.1942,2.809
6.6200,-1.4777,0.0129,0.2097,1.493
6.6270,-1.3711,-0.6590,2.0773,2.575
6.6460,0.5249,-1.8121,1.3391,2.314
6.6500,1.4365,-3.0813,1.0887,3.570
6.6580,0.7520,-2.0677,-0.0856,2.202
6.6670,1.0761,0.1559,-1.0756,1.529
6.6770,1.2005,0.9019,-1.5016,2.123
6.6880,1.5606,0.5344,-0.5931,1.753
6.6980,0.3692,-0.0983,0.7720,0.861
6.7070,0.4872,-1.4806,1.8303,2.404
6.7180,0.1372,-2.1851,2.5063,3.328
6.7270,-0.1933,-1.2531,1.7775,2.183
6.7390,-0.3077,-0.6730,0.4911,0.888
6.7460,0.2951,0.4297,-0.0239,0.522
6.7560,0.8046,0.6167,0.5707,1.163
6.7740,0.9822,-0.4962,-0.6531,1.280
6.7800,1.2722,-1.2091,0.8910,1.968
6.7860,1.6477,-1.0447,0.6598,2.060
6.7970,0.7279,-1.8545,-0.2986,2.015
6.8050,-1.1120,-2.8686,0.5647,3.128
6.8190,-0.6042,-3.3978,-0.4947,3.486
6.8290,-0.7019,-1.7210,-1.2178,2.222
6.8520,0.3302,0.0190,-0.7364,0.807
6.8520,-0.0606,-0.3290,-0.2374,0.410
6.8560,1.6607,-0.6273,0.3814,1.816
6.8660,1.7540,-0.6528,-0.3703,1.908
6.8770,-1.6286,0.4093,-0.2806,1.703
6.8850,-1.9275,0.0088,-1.5126,2.450
6.8970,-0.4644,0.2794,-1.6070,1.696
6.9110,0.8047,-0.2977,-1.0698,1.371
6.9180,-1.0392,0.3726,0.4063,1.176
6.9260,1.0554,-0.5327,1.6137,2.000
6.9410,5.1004,-1.8388,0.1401,5.424
6.9450,0.9316,-0.0075,0.7851,1.218
6.9570,-1.7925,0.6102,1.9264,2.701
6.9660,-3.9656,0.1074,2.3878,4.630
6.9760,-5.3554,1.8676,-0.9650,5.753
6.9860,-2.1049,-0.1180,-2.0208,2.920
6.9960,1.7318,-2.3429,-1.5822,3.315
7.0050,6.3955,-3.0400,-0.8482,7.132
7.0180,4.1678,-2.1968,-0.8512,4.788
7.0260,0.1919,0.2817,-0.1797,0.385
7.0590,-1.1190,1.5456,-1.4813,2.416
7.0630,-1.4659,0.5477,-1.7326,2.335
7.0640,-0.3012,0.0693,0.4496,0.546
7.0680,0.2579,0.0908,1.4962,1.521
7.0780,1.7882,0.5438,1.5340,2.418
7.0880,2.0853,1.6367,1.0700,2.859
7.1000,2.4378,2.1585,0.7418,3.339
7.1070,3.8367,2.4857,1.3190,4.758
7.1190,2.5182,1.8778,0.6251,3.203
7.1280,0.9981,1.3766,-0.7057,1.841
7.1380,0.7614,1.5730,-1.8324,2.532
7.1470,-0.2930,0.7677,-1.9182,2.087
7.1620,-1.4331,-0.8455,-2.5551,3.049
7.1870,-1.4987,0.2740,-1.7358,2.310
7.1920,-0.2991,1.4111,-0.2268,1.460
7.1940,2.3423,2.7221,-1.0277,3.735
7.1990,1.8071,1.8662,-0.7685,2.709
7.2070,1.2878,0.2445,-0.1510,1.319
7.2210,-0.0479,-0.9264,0.3461,0.990
7.2260,-0.7388,-0.5420,0.1643,0.931
7.2370,-1.0061,-0.4287,-0.1190,1.100
7.2460,-0.5132,-1.0725,0.1025,1.193
7.2570,0.2801,-1.2633,-0.6118,1.431
7.2680,-0.2787,-4.1653,0.1691,4.178
7.2760,-1.8455,-4.4217,1.3211,4.970
7.2860,-0.5027,-1.7044,0.7240,1.919
7.2970,-1.7801,-1.1710,0.4448,2.177
7.3060,-1.8154,-1.0622,-0.1755,2.111
7.3260,-1.7414,-1.8452,-0.2498,2.549
7.3280,-0.5039,-1.1862,-0.6346,1.437
7.3400,-1.2796,-0.1414,-0.9040,1.573
7.3510,-1.4988,0.7399,-0.9371,1.916
7.3580,-2.4623,2.2274,-1.3471,3.583
7.3660,-3.0511,3.1912,-1.2836,4.598
7.3770,-1.4008,2.4825,-0.4929,2.893
7.3860,-0.2369,1.7037,-0.0156,1.720
7.3960,-0.1491,0.4710,-0.1534,0.517
7.4090,1.5488,0.2872,-0.1830,1.586
7.4250,3.1074,-0.6993,0.2856,3.198
7.4260,2.2975,-0.9650,1.4421,2.879
7.4360,1.2324,-0.9609,1.1921,1.965
7.4450,0.3802,-0.2213,1.1358,1.218
7.4560,0.1122,-0.8534,1.6266,1.840
7.4660,-0.2188,-1.6984,1.8317,2.507
7.4770,0.9179,-2.8670,1.0768,3.197
7.4870,1.2237,-3.0478,0.0971,3.286
7.5000,1.9282,-1.2274,-0.7081,2.393
7.5060,2.2297,-0.7939,-0.1301,2.370
7.5240,1.8278,-1.0609,0.1261,2.117
7.5310,1.9521,-0.6684,-0.6008,2.149
7.5630,1.8929,0.1066,-0.1329,1.901
7.5650,1.7220,0.7937,1.0649,2.175
7.5670,1.4489,1.1462,0.8358,2.028
7.5700,-2.3953,3.2470,0.0460,4.035
7.5780,-2.0790,3.6666,0.0639,4.215
7.5880,-1.0483,4.0197,-1.0873,4.294
7.5980,-1.4667,2.3146,-0.4444,2.776
7.6060,-2.1837,-0.5775,0.8653,2.419
7.6200,1.0286,2.1397,-1.1450,2.636
7.6270,2.4333,4.6787,-1.4651,5.473
7.6390,1.7163,4.7834,-1.3255,5.252
7.6530,0.7931,4.0959,-0.4574,4.197
7.6590,0.0118,3.3192,0.5015,3.357
7.6670,-0.2199,2.8908,1.1835,3.131
7.6980,-0.5598,2.8557,1.6179,3.330
7.7030,-0.6468,3.0548,1.6004,3.509
7.7090,-0.5548,3.2011,1.9193,3.773
7.7120,0.0923,2.7085,2.8536,3.935
7.7220,0.3653,1.6204,3.2870,3.683
7.7280,0.7153,0.6978,3.8249,3.953
7.7370,0.5621,-0.1108,3.4910,3.538
7.7490,0.2923,-0.7733,1.0516,1.338
7.7600,-0.0953,-1.1112,0.0549,1.117
7.7670,0.3872,-0.3734,-0.4757,0.718
7.7870,0.3197,-0.9733,-0.6839,1.232
7.7890,0.5886,-2.6543,-1.8380,3.282
7.7980,0.2453,-4.1049,0.4901,4.141
7.8060,-0.1450,-4.6422,1.9257,5.028
7.8250,-0.5634,-5.2569,2.0915,5.686
7.8290,-1.0695,-5.9507,0.4959,6.066
7.8480,-0.8637,-5.5139,-1.3348,5.739
7.8510,-0.2743,-4.4458,-2.6646,5.190
7.8590,0.1692,-3.5513,-2.8502,4.557
7.8650,0.2628,-2.7467,-1.9622,3.386
7.8770,0.3910,-2.1558,-0.8891,2.364
7.8850,-0.0561,-0.1903,0.1468,0.247
7.8960,-0.2618,0.8862,0.7994,1.222
7.9090,-0.2620,1.0673,1.0071,1.491
7.9160,-0.0908,0.5685,0.6357,0.858
7.9290,0.0750,0.4148,0.1985,0.466
7.9380,0.0901,0.9275,0.3850,1.008
7.9450,0.0978,1.7797,0.1351,1.787
7.9570,0.2176,2.2456,-0.2256,2.267
7.9660,-0.2096,1.5038,0.1275,1.524
7.9780,-0.1405,1.1450,0.4459,1.237
7.9880,0.0827,1.1742,0.4840,1.273
7.9970,-0.2188,0.4793,0.4416,0.687
8.0060,-0.4916,-0.1076,0.3806,0.631
8.0200,0.1469,0.3925,0.0071,0.419
8.0270,1.3299,1.7965,-0.3307,2.259
8.0390,1.1271,2.1575,0.2673,2.449
8.0570,0.1139,1.2329,0.7253,1.435
8.0610,0.1233,1.2279,0.6948,1.416
8.0670,0.5452,-0.3654,-0.1432,0.672
8.0940,0.9690,-0.0718,-1.3607,1.672
8.0960,0.8538,0.5809,-0.8249,1.322
8.0980,0.7315,2.1106,0.2809,2.251
8.1080,0.8279,3.6481,0.5840,3.786
8.1180,0.7125,3.3323,0.6801,3.475
8.1260,0.7517,1.6521,1.2052,2.179
8.1430,-0.6727,0.3083,2.0892,2.216
8.1460,-1.5699,-1.0250,3.7577,4.199
8.1580,0.1487,-3.9867,0.0126,3.990
8.1660,-0.9184,-5.9039,-0.5120,5.997
8.1780,-2.3646,-3.1920,-0.6863,4.031
8.1880,-2.0564,0.0943,-1.0539,2.313
8.1970,-1.6036,-1.5040,-1.6300,2.737
8.2090,-1.6729,-2.3037,-0.9638,3.006
8.2170,-0.5191,-2.0260,-0.3858,2.127
8.2440,0.1266,-2.2284,0.2553,2.247
8.2480,1.0057,-1.4786,1.3500,2.241
8.2500,1.0830,-1.4945,1.0267,2.112
8.2570,0.7317,-0.0328,1.3610,1.546
8.2680,-0.7847,-0.3209,1.9035,2.084
8.2780,-0.2687,2.2062,3.8656,4.459
8.2880,-0.8566,-0.1240,1.3378,1.593
8.2980,-0.5423,-1.2142,-5.1696,5.338
8.3070,3.2110,1.1617,-2.8977,4.478
8.3170,2.8739,0.9944,0.6950,3.119
8.3280,-0.5635,-1.6917,1.4077,2.272
8.3430,-0.6926,-0.5713,0.8047,1.206
8.3460,0.2314,1.1142,0.7397,1.357
8.3790,0.9429,2.7863,0.6651,3.016
8.3810,-1.5664,-0.0435,0.5893,1.674
8.3830,-1.2433,-0.1277,1.1267,1.683
8.3870,0.0672,0.6196,0.5612,0.839
8.3970,0.1239,0.1665,-1.4415,1.456
8.4070,0.4898,0.0502,-0.8857,1.013
8.4170,0.6531,-0.0715,-0.9722,1.173
8.4310,1.0836,0.1647,-1.2449,1.659
8.4370,1.7759,2.7594,-0.1595,3.285
8.4470,1.9338,2.7954,2.1117,4.002
8.4700,-0.0137,1.0831,2.2415,2.489
8.4720,-1.9848,-0.2925,1.7096,2.636
8.4770,-2.0984,0.2060,0.9591,2.316
8.4890,-2.7596,-0.7629,-0.6439,2.935
8.4970,-2.4455,-1.6651,-1.1057,3.158
8.5180,-0.0937,-1.6678,-3.1100,3.530
8.5210,0.9369,-0.1684,-1.6434,1.899
8.5270,0.8848,-0.8922,-0.6757,1.427
8.5450,0.1971,-1.9449,-0.2929,1.977
8.5460,-0.6246,-2.3468,-0.0669,2.429
8.5580,-0.4696,-1.5710,0.1875,1.650
8.5660,-0.3000,-1.3247,-0.4312,1.425
8.5770,0.2026,-1.0416,-0.5548,1.197
8.5890,0.1742,-1.2834,-0.4606,1.375
8.5970,0.2079,-1.5393,-0.1406,1.560
8.6130,0.2045,-1.6091,0.1446,1.628
8.6170,-0.0765,-1.6983,0.1042,1.703
8.6260,-0.5686,-1.8961,0.0424,1.980
8.6420,0.1453,-1.3439,0.2353,1.372
8.6470,1.1211,-0.0164,-1.3862,1.783
8.6580,1.2869,1.3566,-1.7717,2.576
8.6690,1.1917,2.1827,-0.7761,2.605
8.6780,1.1718,2.2037,-0.6809,2.587
8.6940,0.4810,3.6117,-0.9775,3.772
8.6980,-0.6169,3.1050,-0.8259,3.272
8.7070,-1.4784,2.2318,-0.4944,2.722
8.7160,-1.6068,0.8182,-0.1248,1.807
8.7300,-0.8666,0.1688,1.0112,1.342
8.7390,0.2657,-0.0750,2.5095,2.525
8.7540,0.9790,-0.3054,3.6636,3.804
8.7570,1.2164,-0.4398,3.3873,3.626
8.7660,1.0252,-0.3048,1.9922,2.261
8.7790,0.9132,-0.0068,0.4514,1.019
8.7880,0.6336,0.1640,-0.4431,0.790
8.7990,0.4039,0.3553,-0.5412,0.763
8.8060,-0.0306,0.1943,-0.1265,0.234
8.8170,-0.6729,-0.2424,0.4598,0.850
8.8260,-1.0597,-0.7784,0.6244,1.456
8.8410,-1.1537,-1.0737,0.1082,1.580
8.8470,-1.1533,-1.4304,-0.6827,1.960
8.8570,-0.6361,-1.6732,-1.2044,2.158
8.8660,-0.4275,-1.6652,-1.3062,2.159
8.8770,-0.0933,-1.5238,-1.2751,1.989
8.8860,0.0957,-0.9363,-1.2153,1.537
8.8970,0.1436,-0.0343,-1.2014,1.210
8.9080,0.2841,0.6955,-0.9424,1.205
8.9200,0.5472,1.1011,-0.2387,1.253
8.9270,0.3696,1.3375,0.2049,1.403
8.9670,0.3774,1.4983,0.5780,1.650
8.9690,0.1408,1.2451,0.9254,1.558
8.9730,0.1368,1.1032,0.9640,1.471
8.9760,0.0257,0.9179,0.6997,1.154
8.9780,0.1827,0.7642,0.5571,0.963
8.9870,0.2748,0.5400,0.4515,0.756
8.9970,0.1744,0.2552,0.2097,0.373
9.0070,0.1793,-0.0577,-0.2370,0.303
9.0170,0.1963,-0.2931,-0.6228,0.716
9.0260,0.1189,-0.4610,-0.7883,0.921
9.0390,-0.0018,-0.4260,-0.7532,0.865
9.0480,-0.0880,-0.3064,-0.5390,0.626
9.0780,-0.0911,-0.3059,-0.5386,0.626
9.0800,-0.1337,-0.0944,-0.4550,0.484
9.0810,-0.1440,-0.0886,-0.4546,0.485
9.0850,-0.1532,-0.1522,-0.4231,0.475
9.0970,-0.1434,-0.1750,-0.4058,0.465
9.1140,0.0957,-0.1186,-0.4639,0.488
9.1190,0.2294,-0.1400,-0.4381,0.514
9.1420,0.0795,-0.2224,-0.2536,0.347
9.1420,0.1851,-0.1695,-0.1995,0.321
9.1470,0.2798,-0.0506,-0.1137,0.306
9.1590,0.1953,0.0109,-0.0605,0.205
9.1660,0.1341,0.0484,-0.0720,0.160
9.1770,0.0790,0.0234,-0.0109,0.083
9.1860,0.1068,0.0473,0.0632,0.133
9.1990,0.0551,0.1044,0.1278,0.174
9.2100,-0.0830,0.1038,0.0492,0.142
9.2160,-0.2763,0.0934,-0.0203,0.292
9.2270,-0.3913,0.0818,-0.0879,0.409
9.2360,-0.4403,0.0725,-0.0899,0.455
9.2500,-0.4208,0.0631,0.0273,0.426
9.2580,-0.3508,0.1195,0.0840,0.380
9.2650,-0.1995,0.2009,0.1178,0.307
9.2760,-0.1810,0.2020,0.0593,0.278
9.2850,-0.2493,0.1730,0.1535,0.340
9.2980,-0.2254,0.1487,0.2300,0.355
9.3100,-0.1093,0.1087,0.2808,0.320
9.3160,-0.0486,0.1023,0.3026,0.323
9.3320,-0.0167,0.1341,0.2549,0.288
9.3390,0.0262,0.1802,0.2201,0.286
9.3460,0.0021,0.2178,0.1934,0.291
9.3570,-0.0308,0.2422,0.1821,0.305
9.3650,-0.0868,0.2689,0.1103,0.303
9.3790,-0.2036,0.1842,0.1028,0.293
9.3860,-0.2434,0.0923,0.1123,0.284
9.3960,-0.2382,0.0243,0.1250,0.270
9.4070,-0.3388,-0.0137,-0.0065,0.339
9.4180,-0.2004,0.0454,-0.0912,0.225
9.4360,-0.1493,0.1178,-0.0259,0.192
9.4360,-0.0287,0.1616,-0.2024,0.261
9.4460,0.0582,0.1888,-0.2858,0.347
9.4600,0.0851,0.1359,-0.2220,0.274
9.4660,0.1290,0.0546,-0.0927,0.168
9.4760,0.1119,-0.0289,0.0102,0.116
9.4850,0.1071,-0.0533,0.0072,0.120
9.4970,0.1138,-0.0969,-0.0378,0.154
9.5070,0.2107,-0.0937,0.0500,0.236
9.5170,0.2293,-0.1143,0.1007,0.275
9.5350,0.3290,-0.0944,0.0693,0.349
9.5410,0.2985,-0.0483,-0.0790,0.313
9.5460,0.3191,0.0433,-0.1563,0.358
9.5630,0.3297,0.0690,-0.0708,0.344
9.5660,0.2625,0.0899,0.1377,0.310
9.5770,0.1587,0.1298,0.1156,0.235
9.5850,0.0548,0.1659,0.0043,0.175
9.5960,0.0530,0.1767,-0.0988,0.209
9.6170,0.1898,0.1562,-0.1633,0.295
9.6190,0.2454,0.1477,-0.0891,0.300
9.6260,0.2327,0.0926,-0.0037,0.250
9.6370,0.1490,0.0795,0.0139,0.169
9.6450,0.0847,0.0161,-0.0210,0.089
9.6590,0.0624,-0.0533,-0.0103,0.083
9.6650,0.0523,-0.0928,0.0689,0.127
9.6770,0.1427,-0.1370,0.1389,0.242
9.6850,0.0841,-0.1511,0.1829,0.252
9.6980,0.0191,-0.1366,0.1438,0.199
9.7080,0.0014,0.0001,-0.0129,0.013
9.7170,-0.1037,0.0242,-0.0346,0.112
9.7310,-0.0899,0.0089,-0.0582,0.107
9.7410,-0.0461,0.0451,-0.0305,0.071
9.7480,0.0147,0.1091,0.0990,0.148
9.7680,0.0734,0.1216,0.1422,0.201
9.7690,0.1309,0.2168,0.3066,0.398
9.7780,0.0865,0.2593,0.3912,0.477
9.7860,0.0169,0.2380,0.4058,0.471
9.7970,-0.0717,0.2069,0.3525,0.415
9.8080,-0.0888,0.1264,0.2041,0.256
9.8160,-0.0332,0.0732,0.0541,0.097
9.8280,0.0996,0.0393,-0.1271,0.166
9.8410,0.1507,0.0512,-0.1828,0.242
9.8520,0.1604,0.0445,-0.1341,0.214
9.8580,0.1345,0.0823,0.0591,0.168
9.8660,0.1464,0.0978,0.2673,0.320
9.8770,0.1574,0.0704,0.4120,0.447
9.8860,0.1885,0.0549,0.3497,0.401
9.8970,0.2109,0.0095,0.3241,0.387
9.9200,0.3270,-0.0097,0.2709,0.425
9.9220,0.4038,-0.0205,0.3665,0.546
9.9290,0.4054,0.0200,0.5421,0.677
9.9380,0.3449,0.0366,0.6925,0.774
9.9530,0.2657,0.0171,0.7106,0.759
9.9590,0.1352,-0.0278,0.6740,0.688
9.9660,0.0712,0.0323,0.5607,0.566
9.9770,-0.0226,0.0552,0.3850,0.390
9.9850,-0.1336,0.1213,0.2909,0.342
9.9960,-0.2858,0.0989,0.3044,0.429
10.0100,-0.3527,0.0348,0.3502,0.498
10.0190,-0.3485,-0.0221,0.5243,0.630
10.0420,-0.3185,0.0430,0.6506,0.726
10.0440,-0.3049,0.2264,0.6432,0.747
10.0470,-0.4815,0.3499,0.7537,0.960
10.0600,-0.6110,0.4471,0.9376,1.205
10.0670,-0.6900,0.4795,1.0785,1.367
10.0790,-0.7965,0.5725,1.2199,1.565
10.0870,-0.9511,0.7272,1.2985,1.766
10.0970,-1.0505,0.9410,1.3367,1.943
10.1080,-1.0966,1.1236,1.2181,1.987
10.1160,-1.0100,1.3242,0.9708,1.928
10.1250,-1.0703,1.3730,0.7369,1.890
10.1480,-0.9915,1.2728,0.3776,1.657
10.1490,-0.6937,1.1135,0.1618,1.322
10.1590,-0.2742,0.9694,-0.2097,1.029
10.1660,0.4098,0.8691,-0.1648,0.975
10.1790,1.1181,0.7775,-0.0275,1.362
10.1850,1.5481,0.2911,0.7151,1.730
10.1970,1.7535,-0.0779,1.4377,2.269
10.2080,1.7480,-0.3147,2.3597,2.953
10.2190,1.1961,-0.4672,3.2097,3.457
10.2310,-0.5303,-0.9487,4.0445,4.188
10.2370,-2.8905,-1.8738,4.4516,5.629
10.2530,-5.2857,-2.7919,3.9305,7.154
10.2590,-6.2726,-3.0113,1.4060,7.099
10.2660,-5.8519,-2.3605,-1.7976,6.561
10.2780,-4.0569,-1.9738,-2.6847,5.250
10.2860,-2.8265,-1.7996,-2.9517,4.465
10.2980,-1.7394,-1.1554,-3.8647,4.393
10.3060,-0.3702,-0.2221,-5.0714,5.090
10.3170,0.1157,0.3827,-4.6978,4.715
10.3260,-0.0763,0.5938,-3.4684,3.520
10.3410,-0.3043,1.0036,-2.4275,2.644
10.3460,-1.0337,1.3462,-0.1072,1.701
10.3690,-1.7269,1.7216,2.2309,3.305
10.3710,-1.7766,2.1183,4.2892,5.103
10.3810,-1.0789,2.1741,5.5718,6.078
10.3860,0.3766,2.1897,5.3369,5.781
10.3970,1.0175,2.4456,5.4460,6.056
10.4050,0.7551,2.4628,5.0547,5.673
10.4160,0.6390,2.2518,3.6960,4.375
10.4310,0.6400,2.4572,1.7262,3.070
10.4370,0.5526,2.3133,0.0848,2.380
10.4470,0.5194,2.0827,-0.5141,2.207
10.4600,0.5329,1.6461,-0.7048,1.868
10.4660,0.5614,1.2798,-0.3591,1.443
10.4760,0.4194,0.7393,0.0605,0.852
10.4850,0.5064,0.5514,0.5042,0.903
10.4960,0.1458,0.2354,0.8935,0.935
10.5050,-0.3101,-0.1348,0.7843,0.854
10.5180,-0.5102,0.0778,0.9012,1.039
10.5250,-0.5944,0.0203,0.5118,0.785
10.5380,-0.0757,0.1754,-0.1366,0.235
10.5460,-0.8166,-0.0302,-0.0011,0.817
10.5620,-1.0229,-0.1008,-0.2868,1.067
10.5660,-1.0380,-0.1677,-0.5015,1.165
10.5780,-1.1815,-0.1227,-0.3727,1.245
10.5850,-1.2737,-0.2417,-0.3973,1.356
10.5980,-1.0243,-0.1454,-0.2400,1.062
10.6050,-0.4374,0.0881,-0.1047,0.458
10.6160,-0.7112,0.1449,0.6641,0.984
10.6400,-0.7881,0.2225,1.0310,1.317
10.6410,-0.7581,0.2327,0.8460,1.160
10.6460,-1.1956,0.0024,1.0154,1.569
10.6580,-1.4260,-0.0762,1.0453,1.770
10.6650,-1.5322,-0.0929,1.2093,1.954
10.6780,-1.2367,-0.1194,0.9299,1.552
10.6860,-0.9928,-0.1126,0.8590,1.318
10.6980,-0.4876,-0.1115,0.7923,0.937
10.7060,-0.2904,-0.0417,1.2911,1.324
10.7170,-0.0215,0.8285,1.5749,1.780
10.7300,-0.3630,1.1552,2.1697,2.485
10.7370,-0.8174,1.1830,2.8542,3.196
10.7700,-1.2724,0.2355,2.2859,2.627
10.7720,-1.3490,-3.1320,-0.3331,3.426
10.7760,-1.0280,-11.9586,-2.4852,12.257
10.7790,-1.6797,-19.0360,-1.8379,19.198
10.7860,0.2516,-11.8096,-1.5807,11.918
10.7970,2.0190,-2.7301,-1.2672,3.624
10.8110,2.9981,0.4859,-0.5207,3.082
10.8170,4.2590,2.6177,0.6418,5.040
10.8310,5.8040,4.1189,0.0227,7.117
10.8440,6.9938,3.6698,-1.5182,8.043
10.8450,6.7779,1.2119,-3.0529,7.532
10.8650,5.5990,-1.6142,-3.8203,6.968
10.8660,4.3053,-4.7115,-3.5289,7.293
10.8800,2.4887,-6.0837,-2.6590,7.090
10.8860,0.5599,-6.0857,-1.6887,6.340
10.9010,0.0809,-4.7833,-1.7306,5.087
10.9090,0.8659,-1.7366,-1.8548,2.684
10.9190,1.2329,0.3570,-2.1153,2.474
10.9290,1.5106,1.9324,-1.8767,3.088
10.9390,1.5759,2.8297,-0.6207,3.298
10.9480,1.7227,3.1336,0.9373,3.697
10.9580,1.5638,3.0701,1.7699,3.873
10.9670,1.6636,3.0262,2.2134,4.102
10.9800,1.3556,3.1912,2.2526,4.135
10.9850,0.9869,3.7487,2.0010,4.362
10.9990,0.7268,4.1093,1.9584,4.610
11.0050,-0.2811,4.0429,1.9289,4.488
11.0170,-1.2292,3.5293,1.9832,4.231
11.0260,-2.3454,2.7846,2.0923,4.199
11.0380,-3.4047,2.0407,1.3758,4.201
11.0460,-2.8762,1.4713,-0.4129,3.257
11.0560,-1.8761,1.0824,-2.6237,3.402
11.0660,-0.2568,0.9213,-4.8401,4.934
11.0770,1.3734,1.0982,-5.7152,5.980
11.0850,5.3288,1.0872,-6.6636,8.601
11.1000,6.0373,0.6091,-4.6101,7.621
11.1060,5.4340,0.1855,-1.6294,5.676
11.1200,3.3793,0.0444,1.1534,3.571
11.1300,1.4612,-0.3487,2.5642,2.972
11.1390,-0.0383,-0.1530,1.9556,1.962
11.1460,0.1362,0.9341,3.6481,3.768
11.1650,-1.3049,1.4820,4.8651,5.251
11.1670,-1.4375,1.4981,4.9473,5.365
11.1770,-3.1255,0.9044,4.2058,5.317
11.1880,-1.6929,1.3328,4.2635,4.777
11.1970,-2.4463,1.3693,5.8538,6.491
11.2050,-2.9773,1.2546,6.1630,6.959
11.2200,-3.0943,0.9405,5.8323,6.669
11.2310,-2.8335,0.5197,5.3600,6.085
11.2370,-2.7848,-0.1792,5.1780,5.882
11.2550,-3.7223,-1.1901,3.9977,5.590
11.2570,-4.5706,-0.8583,5.0192,6.842
11.2670,-5.6235,0.0328,4.8671,7.437
11.2790,-6.0798,1.5727,4.9854,8.018
11.2860,-6.0168,2.3188,4.1530,7.670
11.2990,-5.8301,2.1935,2.3316,6.651
11.3060,-5.7929,1.3874,0.9016,6.025
11.3170,-4.3656,0.6565,-0.7963,4.486
11.3550,-2.0955,-1.2064,-1.3463,2.767
11.3590,3.4221,-5.6386,-1.4539,6.754
11.3630,8.7036,-9.1939,-0.2302,12.662
11.3680,9.5195,-11.3289,1.0354,14.834
11.3690,8.0908,-11.8569,0.7784,14.375
11.3800,8.2015,-11.9127,0.6688,14.478
11.3900,4.0278,-11.2504,-1.6520,12.063
11.3970,2.8848,-8.7818,-3.1037,9.751
11.4060,2.1244,-5.6667,-4.5508,7.572
11.4310,-0.1090,-3.9829,-4.9501,6.354
11.4320,-3.1239,-2.2830,-6.5011,7.565
11.4360,-5.4917,-1.1995,-8.1672,9.915
11.4560,-4.6971,0.2833,-11.2030,12.151
11.4570,-4.6735,2.2651,-12.1282,13.193
11.4650,-4.5680,3.9258,-11.7268,13.183
11.4850,-4.2764,4.5001,-9.7499,11.559
11.4880,-2.2806,4.2179,-6.3863,7.986
11.4980,-0.1460,3.8877,-2.8322,4.812
11.5070,2.5865,3.8912,1.6555,4.957
11.5180,5.3834,3.9331,5.7995,8.837
11.5270,7.6423,4.3279,9.1268,12.666
11.5370,8.5888,4.2136,9.2743,13.324
11.5710,9.7706,4.2689,7.5551,13.068
11.5720,9.7240,3.5903,3.2831,10.873
11.5730,7.6877,2.0940,-2.7966,8.444
11.5770,5.7785,0.2637,-7.7061,9.636
11.5860,4.4130,-1.6281,-10.5357,11.538
11.5970,3.4300,-2.6351,-10.5398,11.393
11.6060,3.3778,-2.7272,-9.0494,10.037
11.6190,2.7587,-2.1000,-6.5560,7.416
11.6550,1.7029,-0.8452,-4.1313,4.548
11.6560,0.2637,0.2266,-2.6754,2.698
11.6570,-2.2216,0.9640,-1.5807,2.892
11.6570,-4.4800,1.2855,-0.3223,4.672
11.6670,-7.6198,1.1565,1.5696,7.865
11.6800,-9.1630,0.8610,3.6019,9.883
11.6870,-8.3465,0.2379,4.4978,9.484
11.7020,-6.6465,-1.1655,5.3940,8.639
11.7060,-3.5097,-2.8074,7.4795,8.726
11.7200,-1.2110,-4.3648,8.1087,9.288
11.7310,-0.3380,-4.8121,7.7267,9.109
11.7390,0.7790,-4.1346,4.1473,5.908
11.7800,1.3575,-3.0467,0.3933,3.359
11.7810,0.5109,-4.7993,-2.7294,5.545
11.7820,-0.0979,-10.3782,-4.2371,11.210
11.7830,0.4309,-16.8298,-9.0782,19.127
11.7870,2.4143,-13.5766,-11.3907,17.886
11.8020,7.9361,-4.3163,-10.0830,13.538
11.8050,9.3292,-1.7049,-9.4924,13.418
11.8320,8.2104,-0.7891,-6.0327,10.219
11.8360,6.7357,-1.4250,-3.3785,7.669
11.8520,6.1930,-2.7276,-1.6737,6.971
11.8550,5.9809,-3.5604,-0.1830,6.963
11.8590,5.6504,-3.8651,2.1402,7.173
11.8660,5.6287,-3.4743,3.4105,7.442
11.8770,5.3149,-2.3347,3.2867,6.671
11.8870,4.9706,-0.8613,2.2932,5.541
11.8980,5.0049,0.4652,1.9628,5.396
11.9060,5.4010,1.3229,2.1703,5.969
11.9170,6.0056,1.7921,2.1866,6.638
11.9360,6.7900,2.4309,2.1569,7.528
11.9370,6.3055,3.0761,0.9547,7.080
11.9460,5.0088,3.2448,-0.1623,5.970
11.9570,3.6685,3.0252,-1.1082,4.882
11.9680,2.3805,2.6482,-1.3525,3.809
11.9850,0.7922,2.3263,-1.4916,2.875
11.9880,-0.6397,2.2685,-1.8651,3.006
12.0040,-1.4731,2.6258,-1.5167,3.371
12.0090,-2.4229,2.7122,-0.9051,3.748
12.0180,-2.7821,2.5853,-0.0860,3.799
12.0290,-2.5578,2.2311,0.4030,3.418
12.0800,-1.6336,2.0158,0.3567,2.619
12.0840,1.6579,1.4484,-3.5146,4.147
12.0870,6.6656,-0.3735,-8.0596,10.466
12.0920,5.1728,-2.9213,-6.9428,9.138
12.0950,2.1355,-3.0564,-1.0255,3.867
12.0980,1.5853,-0.3698,4.7673,5.038
12.1020,0.5415,2.1767,7.1803,7.522
12.1080,-0.5522,3.5289,6.5462,7.457
12.1180,-2.6730,3.3487,5.2692,6.791
12.1250,-4.9183,2.3477,4.0825,6.809
12.1380,-5.4727,2.3717,4.4420,7.437
12.1580,-4.5162,2.8924,5.2760,7.523
12.1590,-3.6857,2.8396,5.5848,7.269
12.1660,-2.8716,2.2508,5.4854,6.588
12.1810,-2.6855,0.6839,5.1508,5.849
12.1850,-2.7633,-0.1534,4.6295,5.394
12.2000,-2.7178,-0.1966,5.2818,5.943
12.2060,-4.2525,0.0147,4.7342,6.364
12.2270,-5.0195,1.4540,4.8512,7.130
12.2340,-5.1764,2.9511,4.9969,7.776
12.2600,-6.2127,3.1924,2.9699,7.590
12.2610,-5.9987,3.2158,1.8551,7.055
12.2610,-4.9622,3.1509,0.0201,5.878
12.2670,-4.0158,2.3527,-1.6821,4.949
12.2790,-0.7099,-0.5782,-1.9286,2.135
12.2860,8.1423,-7.9368,-0.3154,11.375
12.2990,13.1089,-13.0750,2.2107,18.646
12.3050,12.8361,-15.5674,4.4091,20.653
12.3180,9.9743,-16.6463,3.0551,19.645
12.3260,5.3951,-18.1671,-0.7953,18.968
12.3650,1.5010,-16.9125,-3.5089,17.338
12.3680,-1.4409,-13.4576,-4.1775,14.165
12.3710,-1.8890,-9.0326,-7.3672,11.808
12.3750,-2.7063,-5.9945,-11.7855,13.497
12.3800,-3.5257,-2.4353,-15.8807,16.449
12.3990,-3.6610,0.5548,-17.7178,18.101
12.4010,-5.9570,2.0180,-17.1875,18.302
12.4510,-7.8702,2.8322,-14.7962,16.997
12.4550,-8.3732,3.2050,-11.2792,14.408
12.4630,-4.2849,3.4062,-7.9016,9.612
12.4670,-0.5940,3.4464,-2.7233,4.432
12.4710,2.6452,3.4364,0.9356,4.436
12.4720,5.1763,3.6834,4.5052,7.788
12.4730,5.3348,3.7279,4.7000,8.028
12.4800,7.7003,4.2748,7.3694,11.484
12.4860,9.1966,4.9305,9.6398,14.206
12.5030,9.4690,3.9159,5.7242,11.737
12.5060,7.9653,2.3750,0.4235,8.323
12.5420,7.0042,0.9657,-6.3385,9.496
12.5430,6.5052,0.2475,-9.7516,11.725
12.5440,5.8037,-0.7096,-11.4688,12.873
12.5710,5.6696,-0.9905,-9.8386,11.398
12.5800,4.5975,-0.8082,-7.2627,8.634
12.5820,3.0729,-0.1347,-5.9722,6.718
12.5850,1.6402,0.9747,-4.8280,5.191
12.5880,-0.6643,0.8679,-4.1000,4.243
12.6010,-3.1347,0.7358,-2.6124,4.146
12.6080,-6.8154,0.1598,-0.5513,6.840
12.6170,-9.5550,-0.5998,2.7453,9.960
12.6270,-10.2669,-1.3133,4.9048,11.454
12.6440,-7.6802,-2.8431,5.3761,9.796
12.6670,-2.9164,-4.0612,6.8361,8.469
12.6680,1.1713,-4.8029,7.0786,8.634
12.6690,3.2744,-4.6203,6.1898,8.389
12.7010,4.1515,-3.7791,5.0600,7.558
12.7090,3.6133,-2.4416,0.7755,4.429
12.7130,1.7282,-3.1821,-2.0475,4.160
12.7200,-0.8283,-9.7437,-4.4509,10.744
12.7220,-1.1640,-19.4490,-7.1766,20.764
12.7250,0.5542,-20.1619,-11.0294,22.988
12.7380,7.1117,-7.4968,-9.7187,14.186
12.7460,10.5722,-2.5800,-12.1495,16.311
12.7590,9.9646,-0.8295,-8.4450,13.088
12.7810,7.7452,-1.1445,-3.7044,8.661
12.7820,6.3488,-2.8833,-1.5362,7.140
12.7850,5.8888,-4.9524,-0.2861,7.700
12.7970,5.6684,-6.3121,1.5405,8.622
12.8070,6.1980,-5.9681,2.5828,8.984
12.8250,7.1083,-4.4864,1.7561,8.587
12.8250,7.7480,-2.4842,-0.1999,8.139
12.8450,7.5885,-0.7312,-1.2217,7.721
12.8460,7.9242,0.8783,-1.3994,8.095
12.8570,8.2418,1.6053,-0.8101,8.436
12.8670,8.6031,2.3578,-0.6812,8.946
12.8760,7.4603,2.8362,-1.3445,8.094
12.8860,5.8479,3.1050,-0.6415,6.652
12.8970,4.8887,3.1285,0.3942,5.817
12.9050,3.6308,3.1803,1.0650,4.943
12.9290,2.5681,3.3349,0.9907,4.324
12.9340,1.3604,3.8390,0.8776,4.166
12.9360,0.5463,4.2933,0.7029,4.385
12.9460,-0.2295,4.4634,0.6176,4.512
12.9560,-0.5346,4.2256,0.4791,4.286
12.9660,-0.2940,3.7200,-0.1988,3.737
12.9760,0.9940,3.0158,-0.6849,3.248
12.9850,2.0190,2.0240,-0.7327,2.951
12.9990,3.3443,0.6283,-1.2674,3.631
13.0060,3.9646,-1.2824,-3.3556,5.350
13.0240,2.2860,-3.4149,-4.7936,6.314
13.0330,1.8378,-3.7812,-2.2007,4.745
13.0400,1.7882,-2.9649,2.1045,4.052
13.0700,1.1245,-1.8478,4.2211,4.743
13.0700,0.2086,0.1988,5.1554,5.163
13.0730,-2.0224,2.4123,6.0371,6.809
13.1030,-3.8573,4.5015,6.0216,8.450
13.1040,-4.5187,5.5624,5.2808,8.902
13.1040,-4.4887,5.1800,4.4573,8.176
13.1090,-4.4434,3.7266,3.5953,6.823
13.1260,-3.7501,2.3318,2.9907,5.333
13.1270,-3.7675,1.1201,3.2722,5.114
13.1410,-4.0394,-0.1041,3.5479,5.377
13.1530,-4.5888,-1.1922,4.1327,6.289
13.1590,-5.0639,-1.8107,4.9012,7.276
13.1690,-4.6819,-0.1857,4.4317,6.449
13.1770,-4.3201,1.3722,3.1860,5.540
13.1870,-5.3075,2.1430,1.6114,5.946
13.2040,-4.7646,3.1328,0.4686,5.721
13.2080,-4.7897,2.5396,-1.3534,5.588
13.2200,-4.3356,1.3476,-2.8768,5.375
13.2270,-1.8360,-0.6145,-2.7872,3.394
13.2710,5.7638,-7.2746,-1.4299,9.391
13.2810,10.6339,-13.3919,0.6416,17.112
13.2920,9.9764,-17.2029,1.9905,19.986
13.2990,7.5492,-18.5835,0.9663,20.082
13.3000,4.6930,-18.1968,-1.4573,18.849
13.3010,1.8025,-15.0362,-2.8276,15.406
13.3020,0.8670,-10.3519,-4.1176,11.174
13.3090,0.6204,-6.0133,-6.6687,9.001
13.3440,0.4657,-3.2415,-10.8212,11.306
13.3450,-0.3065,-0.4349,-14.7971,14.807
13.3450,-1.1012,1.9442,-17.3521,17.495
13.3760,-3.3207,2.8512,-17.5499,18.087
13.3800,-4.1354,3.0499,-15.7619,16.578
13.3810,-4.0704,3.4974,-10.8898,12.140
13.3820,-3.5742,3.0525,-6.6809,8.169
13.3930,-1.5113,2.6488,-2.1373,3.724
13.4030,1.2994,3.2058,2.2871,4.147
13.4050,4.1377,4.1910,5.6364,8.152
13.4200,6.4080,4.7628,7.3852,10.876
13.4260,7.8734,5.2490,8.6638,12.830
13.4390,8.5193,5.1814,7.1016,12.242
13.4680,7.9410,4.2433,2.9720,9.481
13.4740,6.7504,3.0588,-1.2948,7.523
13.4770,5.9385,1.4907,-5.9913,8.566
13.4830,5.6113,0.3418,-8.2740,10.003
13.4860,5.4510,-0.6425,-9.0779,10.608
13.5000,5.4893,-1.2393,-8.3962,10.108
13.5070,4.7347,-1.3592,-6.4937,8.151
13.5170,3.3671,-0.8953,-5.3971,6.424
13.5260,1.5694,0.0131,-4.3991,4.671
13.5370,-0.7744,0.6135,-3.1616,3.312
13.5550,-3.0358,0.8703,-2.3569,3.941
13.5590,-5.5844,0.6664,-1.2432,5.760
13.5870,-8.0480,-0.3385,0.4343,8.067
13.5910,-8.6069,-1.5999,1.9527,8.969
13.5930,-7.3498,-3.4633,3.0831,8.690
13.6000,-5.1112,-5.6517,6.4085,9.957
13.6050,-0.9551,-6.7840,8.1954,10.682
13.6190,2.3535,-7.4312,8.3338,11.411
13.6260,3.0207,-8.2189,7.0061,11.214
13.6370,0.8848,-12.6523,2.2288,12.878
13.6460,-1.6878,-20.9396,0.3111,21.010
13.6600,1.6963,-18.2411,-6.6242,19.481
13.6810,7.4262,-4.8573,-14.3993,16.914
13.6820,10.0782,1.4848,-16.6766,19.542
13.6850,9.7049,2.3661,-13.1224,16.492
13.7010,8.3593,1.8161,-7.2300,11.200
13.7050,8.0668,0.8624,-3.6136,8.881
13.7220,8.0281,-2.0412,-0.9795,8.341
13.7270,7.4372,-5.7656,0.6408,9.432
13.7380,7.1607,-9.5191,2.1556,12.105
13.7470,7.0203,-10.6530,2.5101,13.003
13.7570,6.9743,-8.1295,1.7106,10.847
13.7860,7.1461,-4.0005,0.9356,8.243
13.7870,7.1436,-0.2246,-0.0929,7.148
13.7880,6.8942,1.7693,-0.9788,7.185
13.8170,6.6377,2.8464,-1.1601,7.315
13.8210,5.7661,2.8062,-1.1060,6.507
13.8230,5.5001,2.9033,0.9191,6.287
13.8260,5.3590,3.3247,2.0929,6.645
13.8380,5.0332,3.6661,2.2109,6.608
13.8460,4.7528,4.0881,1.4307,6.430
13.8570,3.9926,4.3462,0.2865,5.909
13.8670,2.6260,4.3943,-0.4870,5.142
13.8820,0.6984,4.0309,-0.6014,4.135
13.8860,-0.7999,3.4754,-0.2350,3.574
13.8980,-1.1671,3.0855,0.2535,3.309
13.9060,0.0870,2.9230,0.0004,2.924
13.9190,4.6560,2.2528,-7.9234,9.462
13.9260,7.8666,-0.9934,-12.5870,14.876
13.9370,4.7079,-3.6172,-8.3925,10.280
13.9590,0.5341,-2.5312,-0.2842,2.603
13.9610,0.2193,-0.5076,3.5634,3.606
13.9930,-1.3997,0.5239,7.3697,7.520
13.9940,-1.6150,0.4201,7.1571,7.349
13.9940,-1.6158,0.4656,5.9843,6.216
14.0020,-1.8852,1.4604,5.6289,6.113
14.0060,-2.0067,3.0084,5.3782,6.481
14.0210,-2.1559,4.0008,4.3110,6.264
14.0270,-2.6013,3.3329,3.1502,5.272
14.0380,-2.8159,1.6900,2.3124,4.016
14.0460,-3.6497,0.0397,2.1761,4.249
14.0690,-5.0727,-0.7743,2.7776,5.835
14.0720,-6.8310,-0.7094,2.5523,7.327
14.0780,-5.7017,0.8657,3.7970,6.905
14.0910,-4.1247,2.4594,5.0389,6.961
14.1030,-2.9067,3.4400,5.4741,7.089
14.1070,-1.6413,4.2777,5.3009,7.007
14.1180,-2.3122,3.9002,3.7953,5.913
14.1260,-3.4266,3.1725,1.8893,5.037
14.1370,-3.9055,2.1521,-0.5973,4.499
14.1460,-3.3756,0.8368,-2.1920,4.111
14.1580,-1.2766,-1.6917,-1.9800,2.900
14.1810,6.7510,-9.1851,0.1963,11.401
14.1820,9.6991,-16.0949,1.1643,18.827
14.1870,8.2883,-19.7159,-0.8648,21.405
14.1970,7.6393,-20.8331,-3.4682,22.459
14.2090,6.2872,-19.3771,-3.3420,20.644
14.2430,3.3608,-15.4605,-1.8908,15.934
14.2500,1.4011,-10.3186,-2.7852,10.779
14.2520,0.6528,-6.8147,-5.7184,8.920
14.2530,0.0778,-4.3252,-9.4228,10.368
14.2580,-0.9711,-1.2936,-14.2581,14.350
14.2680,-2.0280,1.1757,-18.1275,18.278
14.2780,-4.0602,2.3816,-20.5449,21.077
14.3110,-5.4387,3.0014,-17.4322,18.506
14.3120,-5.2586,3.2546,-13.4267,14.782
14.3130,-3.4181,2.7420,-9.9073,10.833
14.3180,-0.8680,2.3168,-5.6238,6.144
14.3280,1.4615,2.4086,-1.3380,3.119
14.3460,3.8444,3.4840,4.9000,7.136
14.3510,6.2893,3.5134,8.6119,11.228
14.3580,8.6738,4.1512,11.4740,14.971
14.3800,10.6065,5.0137,11.1785,16.205
14.3810,12.0984,4.9570,8.5358,15.614
14.3880,11.0898,3.7500,3.5278,12.227
14.3980,8.0795,1.4039,-4.1424,9.187
14.4060,6.4611,-0.3393,-10.1457,12.033
14.4200,4.1511,-1.6932,-13.2300,13.969
14.4260,4.2167,-1.8778,-11.4503,12.346
14.4370,3.2244,-1.9477,-7.7836,8.647
14.4470,1.8229,-1.2203,-5.5570,5.974
14.4570,0.7000,0.0508,-3.8838,3.947
14.4930,-1.3947,0.5065,-1.8746,2.391
14.4940,-4.3831,0.5268,-0.1504,4.417
14.4950,-7.7016,0.5374,2.5820,8.141
14.4970,-9.0023,-0.0971,5.0600,10.327
14.5060,-9.9952,-2.2858,5.8192,11.789
14.5200,-4.4408,-4.2455,5.5337,8.268
14.5250,-0.4261,-5.1276,5.3344,7.411
14.5370,2.3460,-5.3847,4.6825,7.512
14.5470,2.6915,-4.8925,3.1362,6.404
14.5600,2.5687,-3.6453,-0.3689,4.475
14.5670,1.8490,-2.2704,-3.3874,4.477
14.6000,0.3614,-3.6433,-4.9110,6.126
14.6020,-0.2366,-9.5896,-7.1892,11.988
14.6040,1.7663,-16.7217,-8.2443,18.727
14.6070,3.8126,-19.3838,-8.7381,21.601
14.6230,7.5813,-9.5140,-7.1031,14.087
14.6260,9.4991,-3.0396,-8.1572,12.884
14.6580,8.7857,-0.7755,-5.8400,10.578
14.6620,7.1684,-0.1719,-3.4694,7.966
14.6620,6.9709,-1.0291,-1.8966,7.297
14.6870,7.4716,-2.8940,-0.7412,8.047
14.6880,7.9089,-4.3662,0.4784,9.047
14.6880,8.0558,-5.0221,1.8267,9.667
14.6970,8.1183,-4.5981,1.4485,9.442
14.7130,8.8828,-2.8653,0.0298,9.334
14.7180,8.4819,-0.8986,-1.1175,8.602
14.7260,8.4881,1.0253,-0.9899,8.607
14.7390,8.0427,1.9247,-0.6725,8.297
14.7460,7.7626,2.3204,0.1814,8.104
14.7810,7.5600,2.5272,1.0490,8.040
14.7950,6.5423,2.5973,2.0276,7.325
14.7980,5.0154,2.6121,2.8457,6.330
14.7990,3.0809,2.4677,2.8913,4.893
14.8000,1.8519,2.6249,2.0435,3.807
14.8070,0.5000,2.7127,0.8080,2.874
14.8170,-0.6682,2.7188,-0.1290,2.803
14.8260,-2.1267,2.3833,-0.8426,3.303
14.8420,-3.1161,2.0037,-1.6054,4.038
14.8480,-2.6950,1.6127,-2.0385,3.744
14.8930,-0.6433,0.9799,-1.9686,2.291
14.8980,5.4580,-0.0356,-8.9797,10.508
14.9010,10.8622,-3.7054,-16.0348,19.719
14.9040,5.6193,-5.4812,-11.3017,13.760
14.9070,1.2698,-2.7231,-0.4193,3.034
14.9090,0.7945,0.2888,5.2171,5.285
14.9230,0.2143,2.4908,9.4154,9.742
14.9270,-0.8603,2.4975,8.9364,9.319
14.9360,-4.3975,1.8389,6.3300,7.924
14.9460,-5.9007,2.1021,3.9937,7.429
14.9570,-5.7131,3.4686,3.0811,7.360
14.9870,-4.2373,4.4664,3.7134,7.190
14.9880,-3.7281,4.2960,4.1774,7.057
14.9880,-3.2241,2.6250,2.8082,5.017
14.9980,-3.1819,2.6146,2.7731,4.965
15.0080,-4.3896,-1.3362,2.4244,5.190
15.0200,-5.3050,-2.2944,1.6640,6.015
15.0290,-5.9857,-1.8752,1.2834,6.402
15.0390,-4.8910,0.2528,1.8849,5.248
15.0480,-3.9731,1.9127,2.8314,5.240
15.0860,-2.4267,3.3295,3.4393,5.367
15.0880,-2.6111,3.1663,4.1815,5.859
15.0890,-3.5475,2.0002,3.0924,5.114
15.0900,-3.6976,0.8889,0.1242,3.805
15.0980,-2.6172,-0.9653,-2.1556,3.525
15.1070,1.7027,-5.3877,-1.4794,5.841
15.1220,6.6635,-10.9521,0.3518,12.825
15.1270,8.0344,-13.9334,0.4502,16.090
15.1470,9.1184,-15.8610,-1.0285,18.324
15.1480,9.8198,-16.8632,-1.2446,19.554
15.1780,7.5629,-15.3797,0.1568,17.139
15.1790,4.2501,-11.1630,-0.5805,11.959
15.1800,2.7648,-8.0292,-4.0446,9.406
15.1860,0.3050,-6.0802,-8.8978,10.781
15.1980,-0.5892,-3.8240,-12.7006,13.277
15.2120,-1.3857,-1.2668,-16.0891,16.198
15.2420,-2.3293,1.2619,-18.3412,18.531
15.2430,-4.1025,2.3983,-17.5384,18.171
15.2440,-4.0466,2.3340,-17.6020,18.211
15.2470,-3.8261,2.6462,-10.5044,11.488
15.2570,-1.7995,2.8825,-5.8961,6.805
15.2660,0.2702,3.1091,0.0110,3.121
15.2810,3.4491,3.5285,3.7006,6.168
15.2990,3.6067,3.6004,3.9467,6.446
15.3040,8.6355,4.5804,8.7465,13.117
15.3120,9.7825,4.8848,9.1297,14.245
15.3190,9.5214,4.4366,6.5915,12.401
15.3280,8.7703,3.1731,1.5069,9.448
15.3380,7.2428,1.3554,-3.3425,8.091
15.3460,5.2518,-0.6225,-8.6976,10.179
15.3950,4.2659,-1.7560,-10.9836,11.913
15.3960,3.9246,-2.5981,-9.8504,10.917
15.3970,3.4511,-2.6597,-7.5783,8.742
15.3990,2.2799,-1.9300,-5.0899,5.902
15.4070,1.1427,-0.7687,-4.0265,4.256
15.4100,-0.6708,0.1201,-3.2260,3.297
15.4270,-2.7778,0.6842,-2.1921,3.604
15.4330,-6.4032,1.0076,-0.2898,6.488
15.4370,-8.9638,0.8844,1.8958,9.205
15.4480,-9.1425,0.1118,3.1481,9.670
15.4580,-6.9992,-1.8385,5.1989,8.911
15.4680,-2.2991,-3.8253,6.5552,7.930
15.4770,0.5610,-4.9367,6.7358,8.370
15.5220,2.6344,-5.0718,5.7991,8.142
15.5280,4.5979,-3.4998,3.4542,6.732
15.5310,5.0529,-2.1355,0.7091,5.531
15.5370,4.2728,-4.1222,-1.8634,6.223
15.5400,3.3990,-9.6171,-5.0009,11.360
15.5430,3.0619,-17.3155,-10.6079,20.536
15.5470,4.9300,-16.5427,-12.4462,21.281
15.5580,9.9261,-6.2683,-10.7689,15.931
15.5660,9.7173,-3.3936,-7.8762,12.961
15.5950,8.3278,-3.1925,-4.9075,10.180
15.5960,6.6977,-4.0676,-3.3473,8.521
15.5970,6.7075,-5.1019,-1.2252,8.516
15.6080,7.4607,-5.4984,0.0926,9.268
15.6300,8.3108,-4.6521,0.8181,9.559
15.6360,8.8406,-3.2344,1.0269,9.470
15.6390,8.7729,-2.0298,0.9214,9.052
15.6470,8.2508,-1.2134,0.5267,8.356
15.6640,8.1666,-0.1037,0.5064,8.183
15.6680,7.8587,0.6510,0.5215,7.903
15.6950,8.6948,1.4943,0.7521,8.854
15.6950,8.2215,2.3050,0.4896,8.553
15.6960,6.6813,2.7387,1.2622,7.330
15.7060,4.7849,2.9651,1.9932,5.972
15.7210,3.4939,3.2217,2.2157,5.244
15.7260,2.0856,2.9795,1.3884,3.893
15.7390,0.7135,2.4428,0.5511,2.604
15.7450,-0.1481,2.3819,-0.5608,2.451
15.7580,-1.4825,2.4379,-1.7396,3.342
15.7650,-2.1999,2.3789,-2.3920,4.027
15.8030,-2.3150,2.3344,-1.9916,3.844
15.8040,-1.9098,2.0743,-1.5444,3.215
15.8050,-0.1863,1.6716,-2.5832,3.083
15.8080,7.3998,0.1962,-12.1107,14.194
15.8180,8.0389,-2.7391,-13.0642,15.582
15.8320,4.2046,-3.6855,-5.2776,7.689
15.8460,1.3826,-2.0176,2.2533,3.326
15.8470,1.3530,0.1844,7.5002,7.623
15.8600,-0.8045,0.4842,7.2473,7.308
15.8650,-3.6902,0.9712,5.2755,6.511
15.8770,-3.8466,1.0051,5.3582,6.672
15.9310,-5.1198,3.6579,4.8355,7.936
15.9320,-3.9471,4.4659,5.3323,7.997
15.9330,-2.2613,3.5262,4.8838,6.434
15.9340,-2.6001,1.6436,3.8198,4.904
15.9340,-2.0647,0.7290,4.8035,5.279
15.9400,-2.7247,0.1011,4.4917,5.255
15.9490,-5.2699,-1.3886,2.8420,6.146
15.9580,-5.2127,-1.4005,2.8136,6.087
15.9670,-3.3526,0.6432,3.9309,5.206
15.9830,-2.7211,2.4917,4.4139,5.753
16.0300,-2.9602,3.8041,3.9999,6.264
16.0310,-2.8901,3.7641,3.8706,6.124
16.0320,-4.7124,4.2500,-0.3585,6.356
16.0330,-3.4264,3.9634,-1.9770,5.600
16.0340,-1.4922,2.8774,-2.5418,4.119
16.0380,0.9959,1.1671,-2.0682,2.575
16.0460,6.3288,-5.1627,0.0876,8.168
16.0610,11.1311,-12.0327,1.1866,16.435
16.0670,12.5266,-17.1736,0.7787,21.271
16.1020,11.8947,-21.1971,-0.4927,24.311
16.1020,8.1287,-24.0830,-1.0917,25.441
16.1030,1.7944,-21.8111,0.3776,21.888
16.1060,0.7434,-13.6420,-2.6026,13.908
16.1480,0.2348,-8.4630,-7.7920,11.506
16.1490,-1.1531,-5.3213,-12.8945,13.997
16.1500,-2.6068,-1.9567,-18.0098,18.302
16.1520,-3.6058,0.2075,-20.7433,21.055
16.1630,-5.1665,1.6224,-20.5652,21.266
16.1690,-6.0240,2.2122,-18.2676,19.362
16.1800,-6.7751,2.1682,-12.3805,14.279
16.2250,-5.9421,1.4122,-6.6989,9.065
16.2260,-0.6813,1.7486,-2.1467,2.851
16.2270,2.9074,2.5975,2.4860,4.624
16.2280,6.2902,3.8155,7.1713,10.274
16.2290,8.1708,4.3120,10.4059,13.915
16.2600,9.3895,5.1923,11.3798,15.640
16.2610,10.2147,6.3211,9.9413,15.592
16.2660,10.1681,5.8777,4.3897,12.538
16.2800,8.3223,4.2916,-1.2156,9.442
16.2840,5.8679,2.2099,-6.2630,8.862
16.2910,4.8034,0.7391,-9.6701,10.823
16.2980,4.4670,-0.4672,-11.5483,12.391
16.3090,5.1484,-0.9225,-10.3942,11.636
16.3300,5.0548,-1.2358,-8.1665,9.683
16.3310,4.1208,-1.3956,-6.3408,7.690
16.3410,2.6809,-1.2531,-5.0797,5.879
16.3470,0.5147,-0.9694,-3.8318,3.986
16.3590,-2.5987,-0.6485,-2.1787,3.453
16.3770,-5.4992,-0.6901,-0.7407,5.592
16.3810,-8.4450,-1.4557,1.0800,8.637
16.3880,-8.4870,-1.3017,1.3242,8.688
16.3970,-7.7646,-3.9570,2.1832,8.984
16.4090,-5.5147,-5.0911,3.5853,8.318
16.4180,-1.0280,-5.2379,4.8883,7.238
16.4280,2.6035,-4.4936,4.4347,6.829
16.4420,4.6206,-3.7888,3.9415,7.158
16.4460,4.2118,-3.3722,3.8364,6.620
16.4840,3.2978,-4.3674,1.5007,5.675
16.4940,0.6325,-11.0426,-0.2798,11.064
16.4970,-2.2791,-19.0885,-2.7120,19.414
16.5000,2.5181,-13.3666,-9.8320,16.783
16.5080,7.7418,-4.9054,-14.2144,16.913
16.5110,10.8936,-1.5336,-13.7563,17.614
16.5170,11.5383,-0.6155,-10.1226,15.362
16.5280,9.9308,-0.9099,-6.0767,11.678
16.5480,8.7103,-1.7613,-3.5855,9.583
16.5490,7.5379,-3.0131,-1.8992,8.337
16.5590,6.7609,-3.8707,-0.4312,7.802
16.5650,6.2495,-4.3093,2.2290,7.912
16.6090,6.6550,-3.6824,4.0852,8.633
16.6140,7.1181,-2.1725,3.9856,8.442
16.6160,7.1249,-1.0138,3.3382,7.933
16.6180,7.6815,-0.2669,4.2548,8.785
16.6210,8.5688,0.5144,4.4312,9.660
16.6280,9.5217,1.9286,2.2350,9.969
16.6410,8.5245,2.7893,-0.0840,8.970
16.6460,6.3025,3.6824,-0.0939,7.300
16.6580,4.5050,4.0478,-1.0795,6.152
16.6670,3.1617,4.1490,-1.8463,5.533
16.7130,1.9412,3.7736,-2.3587,4.855
16.7150,0.4719,3.2657,-2.4289,4.097
16.7160,-0.5521,2.8704,-2.1511,3.629
16.7160,-0.2824,2.5362,-1.0977,2.778
16.7170,0.1741,2.1845,-0.6059,2.274
16.7260,1.8001,1.4829,-1.1026,2.580
16.7420,3.7047,-0.4376,-6.3816,7.392
16.7460,3.1949,-2.6145,-8.8917,9.803
16.7730,2.0646,-3.4762,-5.5974,6.905
16.7750,3.0241,-1.6462,-0.5088,3.481
16.7770,2.2821,-0.0359,2.6953,3.532
16.7880,0.9301,0.2746,2.9144,3.072
16.7970,-1.7115,-0.5234,1.6762,2.452
16.8080,-3.5345,-0.6120,0.8028,3.676
16.8180,-3.9353,0.6359,2.0593,4.487
16.8260,-3.2706,2.2447,3.8454,5.525
16.8460,-1.9228,3.6864,5.2579,6.703
16.8470,-1.4055,3.3195,4.6445,5.879
16.8930,-2.0886,1.9990,4.3643,5.235
16.8930,-1.9776,1.2991,2.7153,3.602
16.8940,-2.4485,0.7182,2.0826,3.294
16.8940,-3.1748,0.0984,1.3487,3.451
16.8970,-3.2817,-0.4025,2.5670,4.186
16.9060,-2.6689,-0.1701,3.8508,4.688
16.9180,-2.5051,0.3278,4.3481,5.029
16.9270,-2.9877,0.4494,3.9498,4.973
16.9380,-4.1994,-0.2854,3.6717,5.586
16.9470,-4.9561,-1.0798,2.6049,5.702
16.9790,-4.7382,-1.4993,0.0785,4.970
16.9820,-3.8434,-1.5640,-2.0291,4.619
16.9840,-0.8759,-3.3934,-2.8367,4.509
16.9880,5.0495,-7.4754,-3.2654,9.594
16.9980,9.9323,-10.9125,-3.5940,15.187
17.0100,12.5444,-12.2968,-3.0936,17.837
17.0190,14.0974,-12.2218,-2.6482,18.845
17.0550,13.2190,-10.3857,-1.8355,16.911
17.0590,9.4746,-8.0182,-0.2710,12.415
17.0640,5.9699,-6.1104,1.3080,8.642
17.0670,3.3168,-4.9184,0.7811,5.983
17.0700,0.3650,-4.6381,-2.0646,5.090
17.0850,-2.8911,-4.7727,-8.0794,9.819
17.0860,-4.9783,-2.3809,-16.1252,17.043
17.1280,-9.5246,-0.4099,-20.6381,22.734
17.1300,-11.3138,1.1158,-17.7108,21.046
17.1310,-8.9568,2.4167,-14.0890,16.869
17.1320,-3.4504,3.0864,-11.7104,12.592
17.1630,-0.9375,3.1463,-7.9365,8.589
17.1660,1.8626,3.1054,-2.3540,4.319
17.1690,4.7754,2.9342,2.6189,6.186
17.1720,7.8747,3.8931,7.1566,11.331
17.1840,9.7435,4.4414,10.6457,15.099
17.1870,10.3233,5.1832,12.5164,17.032
17.2150,11.0058,5.4352,11.1984,16.615
17.2160,10.7647,4.4165,5.9961,13.090
17.2170,8.2490,2.1129,0.8130,8.554
17.2260,5.4015,-0.5144,-7.1627,8.986
17.2390,3.6167,-2.0697,-12.8043,13.465
17.2490,2.7102,-3.1922,-13.0301,13.686
17.2870,3.9081,-3.2066,-10.6229,11.764
17.2950,3.5386,-3.0214,-7.7855,9.070
17.2980,2.2663,-2.5249,-5.8359,6.751
17.3010,0.4681,-1.5791,-3.5670,3.929
17.3030,-1.8264,-0.8714,-1.9212,2.790
17.3130,-4.5064,-0.3999,-0.5606,4.559
17.3160,-6.6832,-0.2379,1.3129,6.815
17.3260,-8.4624,-0.7484,3.2598,9.099
17.3370,-9.5589,-2.2467,3.7971,10.528
17.3470,-8.4789,-3.5915,4.2135,10.126
17.3850,-6.2200,-4.5415,3.9817,8.670
17.3860,-2.0141,-4.1741,3.9702,6.103
17.3860,1.5074,-2.7491,4.7123,5.660
17.3870,2.6117,-1.6187,4.7288,5.639
17.3970,2.8646,-1.3235,3.6936,4.858
17.4080,2.1940,-4.1966,4.3900,6.457
17.4180,-0.3465,-13.0172,0.3063,13.025
17.4310,0.6281,-17.5271,-7.7324,19.167
17.4380,8.6435,-10.8038,-10.9341,17.635
17.4790,12.7991,-4.7876,-13.0597,18.902
17.4810,13.1354,-0.6016,-12.4894,18.135
17.4820,10.5567,0.9572,-9.9531,14.540
17.4820,8.3484,0.6394,-6.6612,10.699
17.4860,7.6814,-0.3713,-3.2137,8.335
17.4980,6.5611,-1.6847,-0.3091,6.781
17.5230,5.1491,-2.4431,1.6504,5.933
17.5300,3.2726,-2.6161,3.1454,5.239
17.5320,4.7138,-1.5231,5.3819,7.315
17.5390,6.1177,-0.7651,5.9126,8.542
17.5480,5.6820,-0.6812,5.1713,7.713
17.5580,5.3428,-0.9751,6.6756,8.606
17.5660,7.1561,0.5142,6.5288,9.700
17.5990,7.7666,2.6457,2.4472,8.562
17.6010,6.4852,3.5954,-0.4003,7.426
17.6010,5.3825,3.8950,-1.9587,6.927
17.6080,3.7863,3.3997,-3.3555,6.095
17.6170,1.8846,2.2567,-3.5177,4.585
17.6270,0.6468,1.4276,-3.3513,3.700
17.6380,0.3302,1.0423,-2.9972,3.190
17.6480,0.4921,0.9459,-2.7674,2.966
17.6920,0.6198,1.0515,-2.5577,2.834
17.6930,1.3258,1.0950,-2.7461,3.240
17.6930,2.5980,0.6125,-4.5200,5.249
17.6940,2.5054,-0.2704,-4.5615,5.211
17.6970,1.6188,-0.6456,-2.4343,2.994
17.7120,1.3468,0.1719,1.2393,1.838
17.7170,1.3590,1.0931,2.8631,3.353
17.7300,1.1748,1.6360,3.6866,4.201
17.7410,0.2614,1.1835,3.0085,3.243
17.7470,-1.2897,0.5836,1.7370,2.241
17.7610,-3.4220,0.6125,2.0394,4.030
17.7650,-4.0073,1.7007,3.5722,5.631
17.8290,-3.6098,3.1317,5.3717,7.190
17.8420,-3.1798,4.1036,6.7377,8.506
17.8470,-3.2439,3.7667,5.5071,7.419
17.8500,-3.3164,2.7688,3.6290,5.642
17.8530,-3.7588,1.8655,2.3666,4.818
17.8590,-4.1954,1.3640,3.7476,5.788
17.8790,-4.9767,1.0016,3.6288,6.240
17.8790,-5.3507,0.9524,3.8553,6.663
17.8800,-4.1757,2.0279,4.3924,6.391
17.8810,-3.4114,2.8008,3.4344,5.593
17.8810,-3.1393,2.7488,2.6627,4.950
17.8920,-2.8531,2.1905,1.4249,3.869
17.8980,-2.6596,1.3204,-0.3584,2.991
17.9400,-1.5215,-1.0278,-2.5459,3.139
17.9470,5.0309,-5.6775,-1.6105,7.755
17.9480,12.4641,-10.8168,1.7264,16.593
17.9490,13.5754,-14.3231,4.1385,20.164
17.9500,11.1811,-17.5157,3.1697,21.021
17.9630,8.2320,-20.0472,0.8547,21.688
17.9680,4.2987,-19.4216,0.3936,19.896
18.0220,2.5203,-14.0225,-1.0497,14.286
18.0230,0.8880,-9.2531,-4.5480,10.349
18.0240,-0.9424,-6.4013,-8.8449,10.959
18.0240,-1.8306,-3.6426,-13.9077,14.493
18.0250,-3.6647,0.0499,-18.7464,19.101
18.0310,-7.2616,1.8694,-20.5279,21.854
18.0380,-11.2687,2.0429,-19.2698,22.416
18.0760,-11.0732,2.4132,-14.8450,18.677
18.0790,-5.4884,2.4478,-9.4963,11.238
18.0800,-0.5433,2.5726,-4.8263,5.496
18.0800,3.4993,2.9391,0.5405,4.602
18.0920,6.1398,3.7012,4.9787,8.728
18.1160,7.9839,4.5970,8.6172,12.615
18.1170,9.7573,5.4774,10.4712,15.325
18.1180,10.7132,5.8779,10.8715,16.356
18.1530,11.7352,5.7154,8.6771,15.674
18.1560,10.7646,4.3484,3.3195,12.075
18.1560,8.1354,2.4550,-1.5675,8.641
18.1610,6.7512,0.8355,-6.4920,9.403
18.1680,6.2580,-0.4247,-8.9601,10.937
18.1890,6.4399,-1.6901,-9.9572,11.978
18.1900,6.0831,-2.6053,-9.0263,11.192
18.1970,4.9766,-3.0575,-7.9296,9.848
18.2140,3.0394,-2.9967,-6.2958,7.606
18.2170,0.9559,-2.5462,-3.8472,4.712
18.2260,-1.2939,-2.2479,-2.7994,3.816
18.2370,-4.5320,-2.0223,-1.8998,5.314
18.2470,-7.6517,-1.9480,-0.7104,7.928
18.2790,-9.8195,-1.4638,1.8032,10.090
18.2840,-8.7156,-0.6919,3.3334,9.357
18.2870,-6.3641,-0.8592,4.3455,7.754
18.2940,-3.5503,-1.4648,6.3932,7.458
18.2970,0.0075,-2.3386,7.2724,7.639
18.3060,2.4150,-3.2261,8.0009,8.958
18.3170,2.6635,-4.5962,7.9506,9.562
18.3260,1.5343,-8.4780,7.0470,11.131
18.3370,-1.6931,-16.2279,5.7269,17.292
18.3470,-1.0283,-17.1527,-1.8622,17.284
18.4000,5.3931,-6.1774,-9.6059,12.630
18.4040,9.4339,0.6567,-12.3175,15.529
18.4060,11.2568,2.6181,-12.6510,17.135
18.4110,9.9695,2.7511,-10.8138,14.963
18.4130,7.5119,1.3550,-7.2248,10.510
18.4140,5.3400,-0.9543,-3.8438,6.648
18.4270,3.7140,-2.9792,-1.8943,5.124
18.4300,3.3343,-4.0431,0.2377,5.246
18.4690,4.2258,-4.0647,4.4999,7.391
18.4690,4.9179,-2.6425,6.2985,8.417
18.4700,4.6031,-1.2748,5.5194,7.299
18.4710,4.3099,-0.2591,5.9861,7.381
18.4810,5.5608,0.7785,6.7626,8.790
18.4860,7.6506,1.9981,5.2943,9.516
18.5030,9.2679,3.0337,2.0023,9.955
18.5070,7.9579,3.7126,-1.3043,8.878
18.5210,6.1375,3.8093,-2.6997,7.712
18.5280,4.5939,3.5257,-3.8273,6.941
18.5370,3.8272,3.2124,-2.9910,5.824
18.5460,2.9462,2.5803,-0.9916,4.040
18.5610,2.1213,2.1688,0.2929,3.048
18.5660,1.2013,1.5813,1.2351,2.339
18.6050,0.5755,1.1030,1.0229,1.611
18.6160,0.0648,0.4131,0.1464,0.443
18.6180,0.4831,-0.3874,-4.3761,4.420
18.6210,2.5949,-1.5343,-7.8811,8.438
18.6280,3.8671,-2.3769,-6.0507,7.564
18.6300,2.4369,-2.4277,-1.3973,3.713
18.6390,1.8534,-1.1204,2.4146,3.244
18.6470,1.2311,0.0448,2.7393,3.004
18.6580,0.8275,0.1840,2.2926,2.444
18.6660,0.6971,-0.2024,1.6466,1.800
18.6810,0.1556,-0.1405,2.1605,2.171
18.6860,-0.2477,0.3043,3.7726,3.793
18.7340,-2.6735,0.8592,5.5990,6.264
18.7390,-4.2122,2.0932,5.7497,7.429
18.7440,-4.1473,3.5262,5.7270,7.901
18.7480,-4.4076,4.0408,4.9661,7.773
18.7510,-3.8742,3.5081,3.9549,6.554
18.7550,-3.6493,2.8883,3.4974,5.822
18.7650,-3.4611,2.8508,3.1634,5.488
18.7690,-3.0899,3.5428,5.2170,7.023
18.7790,-3.5780,3.3784,6.4987,8.152
18.7860,-3.4397,3.5369,6.8872,8.472
18.8310,-4.2317,3.0919,5.2423,7.413
18.8320,-4.7063,2.5608,3.6933,6.508
18.8330,-4.2094,1.5376,1.6861,4.788
18.8410,-1.9999,0.6716,0.3508,2.139
18.8520,-0.8727,-0.3310,-0.4680,1.044
18.8550,1.4377,-3.6666,-0.6316,3.989
18.8640,8.5291,-10.5694,0.6317,13.596
18.8680,11.6591,-15.4456,1.6125,19.419
18.8810,11.0751,-18.2387,-0.3289,21.340
18.8860,9.5367,-18.6593,-3.0479,21.176
18.9360,8.4741,-15.3763,-2.7697,17.774
18.9450,6.4693,-10.3361,-1.7889,12.324
18.9470,4.0163,-6.0253,-1.8052,7.463
18.9490,2.3569,-3.8610,-3.2898,5.593
18.9500,0.3113,-2.8557,-6.0256,6.675
18.9520,-2.4677,-2.1786,-10.4686,10.974
18.9650,-3.8238,-0.9342,-15.1666,15.669
18.9660,-6.3406,0.5013,-17.1103,18.254
19.0190,-8.8217,1.1605,-15.0018,17.442
19.0200,-9.4832,0.9078,-12.3240,15.577
19.0210,-6.2473,1.4320,-9.6514,11.586
19.0220,-0.3617,1.9529,-5.7287,6.063
19.0230,-0.2284,1.9679,-5.5987,5.939
19.0730,5.4047,2.7440,3.3845,6.942
19.0850,7.3201,3.0746,7.1588,10.690
19.0880,9.3343,3.8326,10.7213,14.723
19.0920,10.1963,4.4728,11.6279,16.099
19.0960,10.6941,4.8826,8.6957,14.623
19.0980,9.8306,4.5607,3.5226,11.395
19.0990,9.7937,4.5117,3.3667,11.296
19.1000,5.0736,1.9744,-8.0563,9.723
19.1070,3.9659,1.1868,-9.9163,10.746
19.1180,3.8457,0.9714,-8.4022,9.291
19.1810,3.7185,0.9067,-6.3960,7.454
19.1880,3.1666,0.7725,-4.8318,5.828
19.1950,1.9959,0.6379,-3.5128,4.090
19.1990,0.5427,0.4433,-2.8321,2.917
19.2010,-1.5259,0.3251,-2.0214,2.553
19.2040,-3.5087,-0.1076,-1.0680,3.669
19.2050,-6.1427,-0.9816,0.4888,6.240
19.2080,-7.9637,-1.8660,2.7737,8.637
19.2090,-8.4501,-3.5175,4.0997,10.029
19.2180,-7.6503,-5.1130,4.1043,10.075
19.2290,-4.9152,-5.8847,4.6927,8.989
19.2370,-0.9012,-4.7818,5.2209,7.137
19.2900,2.6468,-2.7721,5.3810,6.606
19.2980,3.4623,-1.7918,5.3444,6.615
19.3020,1.3851,-3.3453,4.8112,6.021
19.3040,-3.1715,-10.4921,3.2419,11.430
19.3080,-5.7688,-17.6534,-0.7041,18.585
19.3120,1.6848,-11.1785,-8.0192,13.860
19.3150,7.5577,-4.2483,-13.3643,15.930
19.3180,11.2083,-0.7183,-15.2964,18.977
19.3360,12.2096,1.5778,-12.1003,17.262
19.3380,9.8536,2.2222,-6.4841,12.003
19.4040,7.4909,0.9788,-2.6023,7.990
19.4100,7.5121,1.0180,-2.4309,7.961
19.4140,5.8566,-3.1244,2.4287,7.068
19.4170,5.2653,-4.7506,5.0754,8.721
19.4200,4.9245,-5.2486,5.5716,9.102
19.4220,4.8770,-4.0645,4.0210,7.515
19.4250,5.5683,-2.0181,2.6791,6.501
19.4290,7.3145,-0.0492,2.2133,7.642
19.4320,8.8053,0.8780,1.6190,8.996
19.4410,9.4535,2.1192,0.7817,9.720
19.4460,8.1081,2.6637,-1.1674,8.614
19.4570,5.9394,2.9198,-2.0962,6.942
19.4890,4.9487,3.0895,-1.7495,6.091
19.4900,4.0483,3.2120,-0.8923,5.244
19.4900,3.0931,3.0523,0.5531,4.381
19.4970,1.7283,2.6888,1.7349,3.637
19.5080,0.5326,2.4235,3.1451,4.006
19.5480,-1.1848,1.9419,3.7725,4.405
19.5490,-2.6784,1.4041,3.4677,4.601
19.5500,-3.6046,0.9410,1.7665,4.123
19.5500,-3.3781,0.7963,-0.2198,3.478
19.5570,-2.0045,0.8915,-2.3217,3.194
19.5670,3.7863,1.0397,-8.8435,9.676
19.5870,8.8595,-0.6868,-11.6531,14.655
19.5900,5.9465,-2.7832,-6.7065,9.385
19.6430,2.2453,-2.5277,-0.3373,3.398
19.6660,0.1554,-0.2940,4.1507,4.164
19.6680,-0.3725,0.8049,5.3854,5.458
19.6700,-0.8096,1.0252,4.8263,5.000
19.6720,-1.9247,0.9355,3.1058,3.772
19.6780,-1.7211,1.3244,2.0734,3.003
19.6810,-1.5354,1.9270,2.9206,3.821
19.6840,-0.7689,2.7571,5.1577,5.899
19.6870,-1.4116,3.1138,5.9185,6.835
19.6890,-2.3700,2.6033,5.9927,6.950
19.6980,-1.9352,2.6309,5.8223,6.676
19.7060,-3.2240,1.7069,4.6291,5.894
19.7190,-4.4284,1.0853,4.7892,6.612
19.7730,-5.6323,0.6949,4.5257,7.259
19.7860,-5.3396,1.3184,4.2661,6.961
19.7890,-3.5893,3.1870,4.6318,6.670
19.7930,-3.0236,4.3054,4.4869,6.915
19.8020,-3.8759,4.5015,2.8887,6.605
19.8060,-3.2400,4.5008,1.2583,5.687
19.8100,-3.0755,3.1773,-0.0617,4.422
19.8150,-2.0795,1.3796,-1.2121,2.774
19.8200,3.5352,-2.9021,-1.3528,4.770
19.8220,11.9728,-9.5683,1.1353,15.368
19.8280,13.3090,-14.9125,3.0543,20.220
19.8420,9.9423,-17.0989,1.6028,19.844
19.8520,5.7140,-18.8627,-1.2904,19.751
19.8570,3.2431,-18.1662,-2.0178,18.563
19.9170,0.6136,-13.7796,-1.5757,13.883
19.9250,-0.5334,-9.2137,-3.2764,9.793
19.9280,-2.2127,-6.3506,-6.1585,9.119
19.9310,-3.1789,-3.8188,-10.7413,11.835
19.9340,-4.9102,-1.4719,-14.7349,15.601
19.9370,-5.9862,0.5209,-16.8725,17.911
19.9390,-5.9726,2.2235,-17.7902,18.897
19.9420,-5.1527,3.0396,-16.9934,18.016
19.9540,-3.3874,2.9998,-13.9613,14.676
19.9570,-0.8895,2.4842,-9.7692,10.119
20.0030,1.0623,2.5621,-4.7914,5.536
20.0030,2.7900,2.9013,0.5905,4.068
20.0040,4.1356,3.1073,4.7415,7.017
20.0050,5.4151,3.1710,7.9649,10.140
20.0070,6.9653,3.1859,10.5590,13.044
20.0300,7.7791,3.5090,11.5911,14.394
20.0360,8.2713,3.4346,9.7629,13.249
20.0370,9.1170,2.4624,4.3322,10.390
20.0690,8.0548,1.1115,-2.1083,8.400
20.0700,5.4007,-0.4566,-9.0110,10.515
20.0700,3.6810,-1.7160,-12.9394,13.562
20.0800,3.3036,-2.6718,-12.3720,13.081
20.0860,4.0726,-2.7128,-10.0466,11.175
20.0990,3.3787,-2.1177,-7.0285,8.081
20.1060,2.3102,-1.5066,-4.4494,5.235
20.1510,0.2742,-0.8077,-2.0134,2.187
20.1580,-1.5403,-0.0282,-0.8549,1.762
20.1620,-5.0250,0.3064,0.6194,5.072
20.1650,-8.6458,-0.2761,1.7509,8.826
20.1670,-10.0223,-1.2328,2.8733,10.499
20.1700,-11.3792,-2.8267,3.6187,12.271
20.1840,-9.2910,-3.9725,4.4875,11.056
20.1860,-4.2334,-4.4136,5.2151,8.037
20.2350,0.0688,-5.2222,5.2970,7.439
20.2360,1.4146,-8.3696,3.2081,9.074
20.2360,1.5420,-13.7857,1.0358,13.910
20.2370,1.1276,-19.9547,-0.8006,20.003
20.2380,6.2807,-12.2525,-4.5995,14.516
20.2880,9.4791,-0.8345,-11.7782,15.142
20.2970,9.5236,3.3613,-12.7641,16.276
20.3000,8.4208,4.6527,-10.8169,14.476
20.3020,6.6989,3.6711,-7.6763,10.830
20.3050,5.3722,2.0583,-4.8105,7.499
20.3080,4.5611,-0.2698,-2.8897,5.406
20.3110,3.6348,-3.6690,-1.1710,5.296
20.3340,3.6062,-6.1599,-0.4293,7.151
20.3340,4.4039,-6.4401,-0.3879,7.812
20.3790,5.8776,-4.0919,0.2747,7.167
20.3790,6.7312,-1.4231,1.8316,7.120
20.3800,6.0159,0.4689,2.7504,6.631
20.3810,5.3530,1.6048,4.3693,7.094
20.3810,5.1179,2.2687,5.4532,7.815
20.3860,5.1139,2.8861,6.1933,8.535
20.4280,5.5757,3.3373,5.5454,8.543
20.4360,5.0810,3.4485,3.4659,7.051
20.4380,4.1272,3.3028,1.6511,5.538
20.4410,2.9598,3.0266,-0.3124,4.245
20.4440,1.6938,2.6694,-1.4834,3.492
20.4470,0.1290,2.5590,-2.1132,3.321
20.4650,-0.8370,2.3844,-2.3044,3.420
20.4650,-1.5629,1.8872,-1.6779,2.970
20.5050,-2.1734,1.5185,-1.3576,2.979
20.5060,-1.8913,1.0052,-1.2985,2.505
20.5060,-1.1829,0.3499,-2.0911,2.428
20.5070,2.8310,-0.3385,-6.9681,7.529
20.5540,5.4656,-1.6206,-9.7882,11.327
20.5630,3.9258,-2.6741,-7.3143,8.721
20.5670,0.8859,-1.5171,-1.9210,2.603
20.5700,0.0547,0.3685,2.2218,2.253
20.5720,-0.4581,1.5656,5.1345,5.387
20.5750,-0.7599,2.0290,5.1939,5.628
20.5800,-0.3140,1.7591,4.8487,5.168
20.5860,-2.2027,0.7578,3.3347,4.068
20.5980,-3.3207,-0.1327,2.4056,4.103
20.6060,-4.3998,0.1182,1.8856,4.788
20.6660,-4.9121,1.4626,4.6399,6.913
20.6740,-5.5195,2.2514,5.4259,8.061
20.6760,-5.9854,2.2739,3.9196,7.507
20.6800,-5.6202,1.6675,4.0006,7.097
20.6830,-5.0092,0.8553,3.5668,6.209
20.6860,-4.2259,0.2680,4.2615,6.008
20.6880,-4.4677,-0.8120,4.1691,6.165
20.6910,-4.3725,-1.0834,4.4449,6.328
20.6980,-4.4531,-0.7724,4.7393,6.549
20.7060,-4.8295,-0.5875,4.3703,6.540
20.7180,-5.2562,-0.9241,3.3475,6.300
20.7260,-4.5442,-1.2388,3.0652,5.620
20.7820,-3.7792,-1.1973,1.1351,4.124
20.7890,-3.1122,-1.3460,-0.7227,3.467
20.7910,2.0784,-3.5755,-1.2304,4.315
20.7940,6.4329,-6.1205,-1.1921,8.959
20.8020,8.0412,-7.3701,-1.1338,10.967
20.8080,7.3076,-8.0651,-1.3198,10.963
20.8080,6.4643,-7.9787,-1.9739,10.457
20.8090,6.0790,-6.7965,-1.8154,9.297
20.8170,6.5172,-5.1813,-1.5750,8.473
20.8260,6.5588,-4.3085,-1.8056,8.052
20.8390,5.5686,-3.5501,-2.5834,7.091
20.8480,5.5982,-3.6225,-2.7906,7.228
20.8570,0.4644,-2.5738,-4.5747,5.270
20.9080,-0.3051,-0.6663,-7.7545,7.789
20.9160,-2.5281,0.5112,-10.0292,10.356
20.9180,-6.2212,0.8428,-12.0115,13.553
20.9200,-9.7297,1.3558,-11.9603,15.477
20.9220,-8.6319,1.7635,-10.9254,14.035
20.9300,-3.6292,2.9984,-9.0747,10.223
20.9330,0.3277,4.1719,-4.7069,6.298
20.9590,2.9746,4.4049,-0.2788,5.322
20.9600,5.7545,4.3451,4.4310,8.463
20.9610,6.9777,4.8157,8.4055,11.939
20.9710,7.0126,5.5359,10.8801,14.078
20.9770,6.8497,4.7334,9.0114,12.269
20.9860,6.1459,2.3529,3.6486,7.525
21.0420,4.8445,0.1557,-3.2095,5.813
21.0550,3.2528,-1.8396,-10.2543,10.914
21.0590,2.1978,-3.0849,-12.1598,12.736
21.0680,2.8840,-3.1819,-10.1742,11.043
21.0710,2.8679,-2.5707,-7.5208,8.450
21.0730,2.3907,-1.1595,-5.2751,5.906
21.0750,1.0132,0.2841,-3.6210,3.771
21.0760,-0.9292,1.6466,-2.3629,3.026
21.0780,-3.1873,2.3398,-1.1404,4.115
21.0880,-6.2934,2.2570,0.4437,6.701
21.1000,-8.8139,1.6033,2.7564,9.373
21.1060,-9.3788,0.2210,5.0440,10.651
21.1720,-7.5688,-1.2890,5.9790,9.731
21.1860,-4.5667,-3.2295,7.3414,9.229
21.1890,-0.9128,-4.8352,7.9316,9.334
21.1920,1.9759,-7.0465,7.0422,10.156
21.1990,2.7486,-11.7893,4.6524,12.969
21.2030,2.1108,-17.9339,1.4697,18.117
21.2070,4.8389,-15.1294,-4.3265,16.463
21.2090,7.0222,-3.7672,-11.8489,14.279
21.2100,5.5500,1.7459,-11.6151,12.991
21.2110,4.4912,2.2101,-9.2098,10.482
21.2170,5.3278,2.1465,-6.4235,8.617
21.2260,5.6049,1.7965,-4.0778,7.160
21.2380,5.0284,-0.8623,-2.3819,5.630
21.2970,4.5707,-3.7183,-2.1386,6.268
21.3050,4.3970,-7.4644,-1.6295,8.815
21.3070,5.0622,-8.5162,-1.1018,9.968
21.3090,6.2865,-5.8702,-1.0398,8.664
21.3120,6.1932,-2.5623,-0.8865,6.761
21.3140,4.8183,0.2736,-0.5663,4.859
21.3160,3.9598,2.3301,1.0070,4.704
21.3190,3.3315,3.7073,3.2879,5.971
21.3260,2.7341,4.3626,3.2763,6.103
21.3380,2.4883,4.7350,3.3287,6.300
21.3980,2.9543,5.2963,2.9074,6.725
21.4050,2.6518,5.2668,2.3858,6.361
21.4080,2.2648,4.6407,1.8598,5.489
21.4100,1.2809,3.7484,1.6985,4.310
21.4130,0.2188,2.8633,1.3192,3.160
21.4150,-0.5479,2.1732,1.1375,2.513
21.4170,-1.8547,1.9643,0.9781,2.873
21.4200,-2.9913,1.7878,0.5965,3.536
21.4280,-3.2426,1.4988,-0.2862,3.584
21.4410,-2.6113,1.0521,-1.2355,3.074
21.5070,0.6460,0.8822,-5.7099,5.814
21.5190,8.2393,-0.0896,-12.0815,14.624
21.5220,9.4165,-2.7548,-8.8747,13.229
21.5240,4.0641,-3.3833,-1.5843,5.520
21.5270,-0.2761,-1.3718,3.7247,3.979
21.5360,-0.0820,0.3752,6.0673,6.079
21.5390,-0.0313,0.7176,4.3677,4.426
21.5390,-0.3169,0.6008,2.6811,2.766
21.5400,-2.2217,0.1466,2.4798,3.333
21.5410,-4.5218,0.7293,3.1783,5.575
21.5490,-5.8408,2.4212,5.2699,8.231
21.5570,-5.4709,3.7174,7.2715,9.830
21.5690,-4.2109,3.5604,7.4424,9.263
21.5770,-3.6881,2.4047,5.7152,7.214
21.6400,-2.1218,1.3098,3.3858,4.205
21.6450,-1.5632,0.9161,4.9524,5.273
21.6510,-3.7587,-0.4297,5.5329,6.703
21.6520,-5.4527,-1.3154,4.2353,7.029
21.6540,-5.3261,-0.2084,4.3932,6.907
21.6560,-5.2457,0.8963,4.0335,6.678
21.6590,-6.1239,0.9132,2.4481,6.658
21.6600,-5.2382,0.7083,1.7463,5.567
21.6850,-4.0463,-0.0827,0.5056,4.079
21.6880,-3.7897,-0.9528,-1.0379,4.043
21.6910,-1.5986,-3.0690,-1.5454,3.790
21.7020,5.5942,-7.3806,-0.8426,9.299
21.7060,10.1423,-9.9858,0.0271,14.233
21.7180,10.3041,-10.1453,-0.5587,14.471
21.7260,8.4344,-9.5615,-1.5322,12.842
21.7750,7.0182,-8.5679,-1.3417,11.156
21.7860,5.8834,-7.0794,-1.2285,9.287
21.7900,4.8050,-5.7124,-1.9188,7.707
21.7920,3.4164,-4.2133,-2.8303,6.118
21.7940,1.6598,-3.2159,-4.4765,5.756
21.7970,-1.5097,-2.5131,-8.3692,8.868
21.8050,-2.9645,-0.4008,-12.8243,13.169
21.8080,-6.4256,0.7790,-13.9064,15.339
21.8180,-8.4524,1.6499,-14.3720,16.755
21.8260,-8.0373,2.8899,-12.2068,14.898
21.8390,-5.3536,3.1092,-8.3772,10.417
21.8520,-1.5466,3.5062,-5.1682,6.434
21.8570,1.8734,3.7475,-0.5243,4.222
21.9250,3.9310,4.2431,2.9659,6.500
21.9350,6.1765,3.8444,6.9731,10.077
21.9380,7.4510,3.4673,9.0651,12.236
21.9410,7.6216,3.9096,10.4430,13.507
21.9440,7.6424,3.2147,8.0447,11.552
21.9500,6.9380,1.3860,1.4432,7.221
21.9540,5.5655,-0.5643,-5.6831,7.974
21.9580,3.3538,-2.1171,-12.0104,12.648
21.9590,1.7888,-2.9142,-12.6726,13.126
21.9600,2.8768,-2.4918,-10.6035,11.266
21.9700,2.7386,-1.5724,-7.2725,7.929
21.9770,2.1262,-0.3446,-4.3765,4.878
22.0240,0.6166,0.8542,-2.8140,3.005
22.0330,-1.1317,2.1398,-1.7568,2.991
22.0400,-3.0399,2.7643,-1.3410,4.322
22.0430,-5.8073,2.7774,0.1680,6.439
22.0440,-8.4942,2.2725,2.5071,9.143
22.0500,-9.9960,1.0697,4.8178,11.148
22.0530,-8.8218,-0.1721,6.0917,10.722
22.0630,-6.4337,-1.8259,6.8927,9.604
22.0690,-3.2998,-2.6650,7.5863,8.692
22.0770,-0.0625,-3.3480,6.2183,7.063
22.1190,1.4118,-3.7431,3.8838,5.576
22.1200,2.0598,-3.6562,1.5634,4.478
22.1210,2.1617,-4.9787,0.0730,5.428
22.1210,1.0425,-10.7671,-2.0675,11.013
22.1280,-0.3048,-20.6131,-8.1426,22.165
22.1480,4.0118,-16.7813,-13.1981,21.723
22.1550,9.4461,-4.6529,-14.4560,17.884
22.1580,10.0136,-0.2897,-11.4737,15.232
22.1920,8.3047,0.6793,-7.0965,10.945
22.1930,6.4383,0.2930,-3.6269,7.395
22.1940,5.4309,-0.7823,-1.8502,5.790
22.2440,5.0301,-2.0414,-0.3462,5.440
22.2490,5.0943,-2.9054,1.6087,6.081
22.2600,6.0073,-3.1140,3.1440,7.461
22.2640,6.4806,-2.8189,3.7477,7.999
22.2690,6.8952,-1.4692,2.8157,7.591
22.2720,8.0027,0.1695,2.6417,8.429
22.2760,8.5287,0.8631,3.3702,9.211
22.2810,8.4472,0.9846,3.8827,9.349
22.2840,8.5058,2.1361,3.2163,9.341
22.2880,7.2102,3.1946,1.0291,7.953
22.3080,5.1951,3.6577,0.2576,6.359
22.3090,3.5434,3.7695,-0.2048,5.178
22.3600,1.8655,3.4131,-0.3943,3.910
22.3690,0.4538,2.7012,-0.1173,2.742
22.3730,-0.9437,2.0616,-0.5305,2.329
22.3760,-2.4541,1.3098,-1.2821,3.063
22.3800,-3.5173,0.8849,-2.2170,4.251
22.3840,-3.5905,0.9789,-2.8574,4.692
22.3890,-2.4154,1.2834,-3.4700,4.418
22.3910,3.0068,1.2017,-8.5307,9.125
22.4030,4.9678,-0.3207,-9.6566,10.864
22.4060,3.4523,-1.9997,-4.9671,6.371
22.4560,0.8768,-1.4318,0.9713,1.940
22.4570,0.1973,0.3559,4.3136,4.333
22.4580,-0.3924,1.5136,5.6711,5.883
22.4610,-1.4764,1.4112,4.7985,5.215
22.4730,-3.3884,0.8375,2.6316,4.371
22.4740,-4.7079,0.8589,1.1343,4.918
22.5110,-5.3961,2.2425,1.5870,6.055
22.5190,-4.3401,3.4806,4.0571,6.886
22.5210,-3.8782,3.6491,5.5472,7.689
22.5230,-3.8129,2.5816,4.2536,6.269
22.5260,-3.0498,2.3508,3.7772,5.394
22.5280,-3.9904,1.5385,3.6801,5.642
22.5480,-5.0716,1.0746,3.4520,6.228
22.5490,-5.5072,0.6067,4.4494,7.106
22.5570,-5.3941,1.1548,4.9240,7.394
22.5970,-5.2311,1.9546,4.5665,7.214
22.6110,-5.6896,1.6174,3.7911,7.026
22.6150,-5.7755,0.8576,3.2149,6.665
22.6210,-3.0925,0.0444,2.7756,4.156
22.6240,-1.8511,-1.3871,1.4057,2.707
22.6260,0.1041,-4.4489,-0.1830,4.454
22.6280,6.7107,-10.1293,-0.1502,12.151
22.6380,13.4812,-14.2991,1.6325,19.720
22.6460,14.4773,-14.7224,0.6656,20.659
22.6940,11.7548,-13.1461,-1.7552,17.722
22.6950,8.7317,-11.3275,-2.1409,14.462
22.6980,4.9409,-9.3598,-1.3691,10.672
22.7020,2.3394,-7.2417,-1.0866,7.687
22.7040,0.0271,-5.4069,-2.2949,5.874
22.7160,-2.8839,-5.0914,-7.5135,9.523
22.7230,-5.1908,-3.8092,-15.2847,16.585
22.7690,-5.6732,-1.4950,-18.2398,19.160
22.7710,-6.2233,1.0281,-19.6697,20.656
22.7720,-8.0185,2.4608,-17.9072,19.774
22.7730,-8.5723,2.6461,-15.2919,17.729
22.7730,-4.9724,3.7585,-11.4231,13.013
22.7770,-2.0286,4.1041,-5.8873,7.458
22.8240,1.5816,4.3709,-0.7221,4.704
22.8300,4.0151,4.5341,2.9127,6.720
22.8360,6.2618,4.6060,7.5240,10.818
22.8390,7.6859,5.1692,11.4994,14.766
22.8410,8.1376,5.4947,13.2072,16.457
22.8510,8.2046,4.9333,10.8529,14.472
22.8550,8.8006,2.7228,4.8317,10.402
22.8570,7.7710,0.4270,-1.8341,7.996
22.8680,4.8114,-2.1363,-9.9918,11.294
22.8770,2.5760,-3.9753,-13.9601,14.742
22.9180,3.4284,-4.4217,-12.7984,13.968
22.9190,4.0813,-3.8362,-9.8112,11.297
22.9200,2.6428,-2.3555,-6.7186,7.594
22.9200,2.1228,-1.0639,-4.7067,5.272
22.9260,0.4969,-0.0225,-2.7717,2.816
22.9720,-1.4736,0.8720,-1.9855,2.622
22.9750,-4.1176,1.5250,-1.2285,4.560
22.9780,-7.4658,1.4549,0.4717,7.621
22.9800,-10.1671,0.5790,2.9027,10.589
22.9840,-11.6596,-0.7550,4.1363,12.395
22.9870,-9.7298,-2.2863,4.6849,11.038
22.9980,-6.2079,-3.2882,5.5254,8.938
23.0180,-1.8827,-3.7749,5.4865,6.921
23.0190,0.8682,-3.7006,4.5400,5.921
23.0270,2.2900,-3.8443,3.6398,5.768
23.0680,2.2334,-6.3584,3.0491,7.397
23.0710,0.6844,-13.2844,-0.0506,13.302
23.0740,1.0385,-20.0793,-8.3024,21.753
23.0780,6.8065,-15.3790,-13.5848,21.619
23.0820,10.9992,-5.9272,-15.6038,19.990
23.0870,11.5643,-0.0908,-13.5641,17.825
23.0980,10.0436,2.5620,-8.8143,13.606
23.1110,8.2135,2.2675,-5.5815,10.186
23.1790,6.8252,0.2948,-3.4129,7.637
23.1850,6.4426,-1.4278,-1.4629,6.759
23.1870,5.9056,-2.6320,0.3845,6.477
23.1880,5.2620,-2.9942,1.5525,6.250
23.1900,5.2815,-3.0291,3.3594,6.954
23.1910,5.4334,-2.0304,3.0410,6.549
23.1920,5.6190,-0.7294,2.6082,6.238
23.1940,6.3884,0.0698,3.4078,7.241
23.1990,6.6575,0.3123,4.5395,8.064
23.2060,6.3922,1.2517,3.5151,7.402
23.2230,5.9051,2.5905,0.5680,6.473
23.2270,4.7967,3.1597,-0.9072,5.815
23.2870,3.6236,2.9964,-1.5213,4.942
23.2950,2.0710,2.6944,-2.4703,4.201
23.3000,1.0122,2.6472,-2.8641,4.029
23.3030,0.1859,2.4849,-2.1111,3.266
23.3060,-0.8068,2.1452,-1.1451,2.562
23.3080,-1.5530,1.9820,-0.9005,2.674
23.3100,-2.2665,1.9969,-1.2319,3.262
23.3120,-1.5574,2.0232,-1.2446,2.840
23.3230,1.6127,1.8337,-4.9613,5.530
23.3270,3.7555,0.8323,-7.0949,8.071
23.3410,3.3197,-0.8745,-4.9080,5.989
23.3460,1.3060,-1.3850,-0.9292,2.118
23.4110,-0.2404,-0.2802,2.1765,2.208
23.4240,-0.7522,0.3522,3.2841,3.387
23.4280,-1.6446,0.1676,2.9924,3.419
23.4300,-2.6784,-0.1505,2.8079,3.883
23.4320,-3.6411,0.4728,3.3770,4.989
23.4390,-5.2175,1.7860,4.7698,7.291
23.4420,-6.0293,3.1179,5.4416,8.700
23.4450,-5.9084,3.3929,4.2428,8.026
23.4480,-5.1570,2.2902,3.2743,6.524
23.4490,-4.1501,1.2731,2.5257,5.022
23.4580,-4.5241,0.7382,2.4788,5.211
23.4720,-5.8855,0.1632,2.4234,6.367
23.4780,-5.9044,-0.0030,2.7818,6.527
23.5410,-3.5942,1.8570,5.1583,6.556
23.5500,-3.3081,2.8728,5.6485,7.149
23.5540,-4.8167,2.3885,4.0222,6.714
23.5580,-4.5147,2.2343,2.3454,5.557
23.5610,-3.2107,1.4262,0.8565,3.616
23.5650,-2.1442,0.5253,-0.7330,2.326
23.5680,-0.0631,-0.8570,-1.3896,1.634
23.5720,7.0530,-5.7786,-0.5198,9.133
23.5730,12.4709,-11.7375,0.9629,17.153
23.5850,11.8554,-13.5506,0.6807,18.018
23.6440,8.6975,-14.2738,-1.1603,16.755
23.6530,5.8770,-14.4015,-1.7963,15.658
23.6570,3.2824,-13.4279,-1.2174,13.877
23.6600,1.2628,-10.6743,-1.3829,10.837
23.6630,0.6267,-7.0997,-2.8476,7.675
23.6660,-0.8325,-5.5375,-6.0067,8.212
23.6700,-2.5172,-3.5716,-12.8932,13.614
23.6760,-3.7370,-1.6159,-18.9630,19.395
23.6780,-5.2156,0.2511,-19.5662,20.251
23.6800,-6.0366,1.2861,-18.2153,19.233
23.6890,-6.3588,1.7703,-15.4572,16.808
23.6970,-5.8439,2.1612,-11.2844,12.890
23.7490,-4.2044,2.1808,-7.4260,8.808
23.7570,-0.3822,2.1172,-1.9892,2.930
23.7590,2.0809,2.6263,2.3906,4.116
23.7600,4.8340,3.2250,6.7722,8.924
23.7620,7.5338,3.6171,10.5050,13.424
23.7640,9.4928,4.6389,11.7639,15.812
23.7770,10.4798,5.3130,10.6007,15.825
23.7790,10.0390,4.3305,4.4591,11.808
23.8380,8.7950,2.5092,-3.1606,9.677
23.8390,6.0263,0.3478,-9.5523,11.300
23.8400,4.0129,-0.8986,-12.9687,13.605
23.8410,3.1217,-1.5308,-12.6290,13.099
23.8420,3.0066,-1.4740,-9.7591,10.318
23.8660,2.6094,-1.0825,-7.1349,7.674
23.8670,1.6854,-0.4919,-5.4570,5.732
23.8680,0.4802,0.1482,-4.1396,4.170
23.8680,-1.5412,0.4333,-3.0790,3.470
23.8980,-4.0079,0.6303,-1.6025,4.362
23.8990,-7.0148,-0.1084,0.1973,7.018
23.8990,-9.0740,-1.8233,2.5943,9.612
23.9080,-8.3452,-3.6634,3.3027,9.694
23.9290,-5.4054,-5.2391,4.1741,8.608
23.9320,-1.6465,-5.7126,4.5306,7.475
23.9390,1.9621,-5.1728,4.0658,6.866
23.9950,3.4287,-4.2313,2.9654,6.201
24.0010,4.1867,-3.0030,1.7679,5.447
24.0020,3.4299,-3.9359,0.2648,5.227
24.0040,1.5009,-10.3542,-1.3111,10.544
24.0060,1.5269,-18.4384,-6.8909,19.743
24.0090,4.7504,-15.3905,-11.2219,19.631
24.0100,7.4976,-5.7293,-13.1058,16.149
24.0230,8.3964,-1.4514,-13.3252,15.817
24.0260,8.2053,0.2543,-9.9778,12.921
24.0430,6.6684,-0.5445,-7.6698,10.178
24.0460,5.5149,-2.2065,-4.9342,7.722
24.1080,5.4446,-3.4743,-2.9532,7.102
24.1130,5.5457,-3.9148,-0.8358,6.839
24.1150,5.8679,-3.3224,-0.0699,6.744
24.1170,6.3824,-2.0403,0.2355,6.705
24.1210,7.5087,-0.6334,1.6825,7.721
24.1240,6.3256,0.2311,2.1683,6.691
24.1260,5.6321,0.3268,3.4019,6.588
24.1290,5.5699,0.3188,5.0186,7.504
24.1410,6.6240,1.4812,4.1077,7.934
24.1470,6.9483,2.9816,0.6874,7.592
24.1590,5.8383,3.4464,-1.1875,6.883
24.1660,4.4954,3.2783,-2.1306,5.958
24.2260,2.6973,2.7258,-3.0742,4.915
24.2310,1.4350,2.3275,-3.9997,4.845
24.2330,0.8727,2.3119,-3.5329,4.311
24.2350,0.1233,2.3587,-3.2537,4.021
24.2400,-0.2869,2.2702,-2.8395,3.647
24.2410,-0.6466,1.9728,-2.6400,3.359
24.2420,-0.6071,1.4820,-2.6893,3.130
24.2530,1.1784,0.2905,-5.0232,5.168
24.2570,2.7638,-1.1875,-6.0849,6.788
24.2660,2.4386,-2.3370,-5.1565,6.164
24.3120,1.7355,-2.0765,-2.1716,3.470
24.3130,1.5638,-1.1277,1.2024,2.272
24.3140,1.3733,-0.3425,2.7238,3.070
24.3140,0.1258,-0.0871,2.7855,2.790
24.3450,-1.0507,0.9129,2.7925,3.120
24.3490,-3.3949,1.8605,3.6297,5.307
24.3490,-5.6219,3.4852,4.8343,8.193
24.3500,-6.4976,4.3855,4.7640,9.173
24.3930,-6.6988,3.7980,3.1017,8.302
24.3930,-5.2964,2.2868,2.4367,6.262
24.3940,-4.0454,0.8223,2.4704,4.811
24.3940,-3.3713,1.1015,2.3739,4.268
24.3970,-4.5474,0.8807,2.3778,5.207
24.4080,-4.7844,0.6219,3.4720,5.944
24.4170,-4.4724,1.1167,4.4298,6.393
24.4320,-3.7424,2.2245,4.8881,6.546
24.4400,-4.8169,2.1904,2.9583,6.062
24.4970,-4.4398,2.4883,0.9108,5.170
24.5060,-5.0554,1.4119,-1.1412,5.371
24.5100,-3.7191,0.3037,-2.9315,4.745
24.5130,-1.2326,-0.7828,-2.7206,3.088
24.5150,6.6014,-5.3831,-0.6972,8.546
24.5180,15.1012,-12.0698,2.3467,19.474
24.5230,14.7855,-14.9123,3.3037,21.258
24.5260,9.9232,-17.1922,2.1747,19.969
24.5440,5.1211,-18.2711,-0.2014,18.976
24.5450,1.9298,-15.9998,-2.1719,16.261
24.5460,0.7492,-11.2496,-3.3191,11.753
24.5980,-0.5595,-7.4488,-5.9076,9.523
24.6050,-2.1967,-5.4787,-10.4626,12.013
24.6090,-3.6816,-3.2602,-15.4825,16.245
24.6120,-5.2969,-0.8477,-19.2773,20.010
24.6150,-6.4428,1.3135,-22.1521,23.107
24.6210,-6.3269,3.0927,-20.7131,21.878
24.6230,-5.6215,2.6980,-16.4509,17.593
24.6500,-3.9002,2.0478,-10.6475,11.523
24.6500,-0.2402,2.1651,-6.4379,6.796
24.6510,3.2627,2.9837,-0.2940,4.431
24.7070,4.4083,3.1046,5.7569,7.888
24.7130,6.1483,3.3892,11.3151,13.316
24.7150,7.6794,3.2604,13.6354,15.985
24.7160,8.2299,2.6749,12.3413,15.073
24.7200,9.0201,1.8470,7.5747,11.923
24.7230,9.1248,0.3331,-1.0418,9.190
24.7250,7.8167,-1.3811,-10.1083,12.852
24.7280,5.1926,-2.9846,-15.3799,16.505
24.7650,3.7310,-4.2122,-14.5574,15.607
24.7660,4.4200,-3.8843,-12.0619,13.421
24.7670,4.7583,-3.1303,-9.6166,11.177
24.7670,4.5644,-2.8172,-7.2697,9.034
24.7780,3.7346,-2.1741,-5.0675,6.660
24.8340,2.4079,-0.9790,-2.4647,3.582
24.8430,0.7457,0.3435,-1.0275,1.315
24.8450,-1.3266,1.5710,-0.3073,2.079
24.8480,-3.8205,2.1807,0.1474,4.402
24.8500,-6.2648,2.4184,1.0176,6.792
24.8640,-7.7296,2.1964,1.5111,8.176
24.8670,-8.9463,1.5864,2.6232,9.457
24.8680,-8.2938,0.9940,3.8095,9.181
24.8690,-6.1084,-0.8247,3.9008,7.294
24.8830,-3.2495,-3.0267,3.6801,5.767
24.8910,-0.9360,-5.5422,3.6537,6.704
24.8970,-0.0913,-9.1046,3.2006,9.651
24.9070,-0.7415,-16.9767,2.8767,17.235
24.9170,-0.9639,-25.0580,-0.9106,25.093
24.9680,6.3915,-14.2015,-7.4430,17.261
24.9760,10.8350,-2.3299,-11.7348,16.141
24.9790,12.0741,2.1546,-12.5124,17.521
24.9820,11.4274,4.1639,-10.3240,15.953
24.9850,9.1726,3.3771,-9.1551,13.392
24.9880,7.1737,1.2562,-7.0745,10.153
24.9910,5.8494,-1.2556,-4.5240,7.501
25.0260,4.6959,-4.0170,-2.3867,6.624
25.0270,3.8084,-5.3672,-1.6019,6.773
25.0280,4.1237,-4.6357,-0.9229,6.273
25.0280,5.1847,-2.7056,0.1094,5.849
25.1070,6.1681,-0.6252,1.1610,6.307
25.1200,6.6459,-0.0104,2.7997,7.212
25.1230,5.8744,0.1214,5.3012,7.914
25.1250,5.1625,0.4785,7.6383,9.232
25.1260,7.2863,2.8138,6.4699,10.142
25.1290,6.9000,3.8061,2.3718,8.229
25.1310,5.7364,4.2784,-0.4728,7.172
25.1330,5.5927,4.2749,-0.5784,7.063
25.1340,3.1137,3.4420,-1.6625,4.930
25.1380,1.0188,2.5006,-2.3007,3.547
25.1400,-0.9259,1.6753,-2.4911,3.142
25.1510,-2.4756,1.1672,-2.8740,3.969
25.2140,-3.3340,0.8931,-2.6265,4.337
25.2200,-3.1852,0.8281,-2.3113,4.022
25.2240,-1.5426,0.0436,-6.6209,6.798
25.2270,1.0786,-1.3050,-7.6773,7.862
25.2290,2.0054,-2.7317,-5.7188,6.647
25.2300,1.3410,-2.1568,-2.4418,3.523
25.2330,0.9727,-0.3969,0.6841,1.254
25.2380,-0.1116,0.5182,2.3387,2.398
25.2640,-0.5264,0.8856,2.8316,3.013
25.2650,-1.3096,0.8675,2.9207,3.316
25.2650,-3.1035,1.0932,3.7049,4.955
25.2660,-5.7517,2.1148,4.8202,7.797
25.2770,-6.3302,3.3597,5.2600,8.890
25.3400,-4.5187,4.1163,4.1143,7.368
25.3490,-3.5442,3.0798,3.3599,5.774
25.3510,-3.0563,1.5162,3.9469,5.217
25.3540,-2.1953,2.0757,4.8487,5.713
25.3590,-3.4976,2.0908,4.7861,6.286
25.3620,-5.3103,1.6790,4.2664,7.016
25.3650,-6.1700,2.0698,4.9674,8.187
25.3680,-5.5517,3.2613,4.8474,8.059
25.3710,-5.0582,4.2986,4.2735,7.895
25.3950,-4.2596,4.8635,2.9402,7.102
25.3960,-4.4908,4.4830,0.8424,6.401
25.3970,-4.2380,3.5395,-0.7899,5.578
25.4060,-2.8280,2.1375,-1.8934,4.019
25.4180,0.2996,-0.5588,-1.0735,1.247
25.4270,9.6023,-7.8742,1.3350,12.490
25.4840,13.8214,-15.3231,2.3798,20.772
25.4910,9.0797,-22.2846,1.3140,24.099
25.4930,5.5922,-27.4982,-2.0001,28.132
25.4940,0.5726,-26.9382,-3.3136,27.147
25.4960,0.3216,-17.8209,-6.1565,18.857
25.4990,0.0688,-10.7314,-8.5129,13.698
25.5010,-1.1643,-7.0793,-10.6722,12.860
25.5080,-1.3388,-2.6733,-12.9262,13.267
25.5180,-1.8605,0.7636,-15.6636,15.792
25.5380,-3.1406,3.3040,-19.4411,19.968
25.5390,-5.9060,2.4734,-18.4706,19.549
25.5460,-5.7326,1.9045,-14.4511,15.663
25.5970,-5.5384,1.5729,-8.6193,10.365
25.6100,-3.7941,0.7227,-3.2455,5.045
25.6130,0.6952,1.3112,1.4643,2.085
25.6160,3.5513,2.6525,4.9297,6.629
25.6180,6.8395,3.6405,5.2519,9.360
25.6210,8.4868,4.3243,5.6117,11.055
25.6230,9.6398,5.6047,6.6645,12.991
25.6300,9.8538,6.1052,5.5795,12.865
25.6370,9.1642,5.8942,1.5976,11.013
25.6460,7.4729,4.7309,-2.9276,9.316
25.7170,6.4299,3.4641,-7.0766,10.170
25.7260,5.7356,2.2930,-8.9262,10.855
25.7280,4.8319,1.2105,-8.2483,9.636
25.7300,4.8358,0.6670,-7.1840,8.686
25.7330,4.7014,0.4961,-5.8667,7.534
25.7350,3.8560,0.1709,-4.6995,6.081
25.7380,2.5346,-0.2346,-3.8407,4.608
25.7410,1.1152,-0.5439,-3.3938,3.613
25.7430,-1.3455,-1.2084,-3.0732,3.566
25.7480,-4.8011,-2.2500,-2.4190,5.828
25.7600,-7.8573,-3.5849,-0.6673,8.662
25.7660,-9.4149,-4.8128,0.7061,10.597
25.8380,-9.6213,-5.7747,1.2298,11.288
25.8470,-6.4873,-5.5318,0.9072,8.574
25.8500,-3.5092,-5.1607,2.2140,6.622
25.8520,-0.4324,-4.1857,2.1320,4.717
25.8560,1.7343,-2.5771,1.6089,3.498
25.8590,2.7484,-1.1326,1.2628,3.230
25.8710,2.1367,-0.9165,1.1900,2.612
25.8710,1.0125,-4.5626,1.7038,4.975
25.8720,0.4922,-10.5287,0.4312,10.549
25.8730,1.5178,-14.4896,-2.7996,14.835
25.8810,6.2361,-9.4401,-3.8406,11.948
25.8860,9.7396,-6.5544,-8.2255,14.335
25.9430,11.2944,-3.7320,-10.8706,16.114
25.9520,10.4174,-1.3229,-9.1124,13.903
25.9540,8.6560,-1.1393,-7.7282,11.660
25.9570,7.4212,-1.7492,-6.2656,9.869
25.9600,6.7550,-2.3853,-4.0732,8.241
25.9630,6.5424,-3.0657,-2.4712,7.636
25.9640,6.9671,-3.3630,-1.6413,7.908
25.9690,6.7757,-2.9245,-1.0069,7.448
26.0060,6.5040,-1.7315,-0.6142,6.758
26.0090,6.9697,-0.4683,0.9626,7.051
26.0110,6.8727,0.2841,3.1445,7.563
26.0130,5.7801,0.5477,4.2011,7.166
26.0170,5.5073,1.6357,4.0788,7.046
26.0730,5.8208,3.0796,2.8476,7.175
26.0850,5.4115,3.7830,1.9275,6.878
26.0900,4.7209,3.6453,1.5654,6.167
26.0940,3.0635,2.9826,0.8561,4.360
26.0980,1.2958,2.6204,-0.1984,2.930
26.1020,-0.0638,2.2514,-1.5735,2.747
26.1060,-1.5272,1.7384,-3.1404,3.901
26.1100,-2.3838,1.2456,-4.1414,4.938
26.1130,-2.7577,0.8442,-4.5702,5.404
26.1290,1.4053,0.5314,-9.3877,9.507
26.1300,6.2584,-1.1959,-11.4052,13.064
26.1380,5.2200,-3.0228,-8.8093,10.677
26.2040,2.5967,-2.0268,-2.4001,4.076
26.2140,0.8803,0.4240,1.9762,2.205
26.2160,-0.1120,1.3843,4.2832,4.503
26.2180,-2.0905,1.0736,4.0707,4.700
26.2200,-4.1539,0.7454,3.4600,5.457
26.2280,-6.5595,1.4752,3.3088,7.493
26.2360,-5.0697,3.0988,4.4759,7.439
26.2400,-2.6568,4.2488,4.5161,6.746
26.2430,-2.1032,3.4195,3.7178,5.472
26.2450,-3.1442,0.8244,2.8487,4.322
26.2480,-2.7816,0.6186,3.0810,4.197
26.2680,-4.5816,-0.0047,3.1172,5.541
26.2690,-6.6948,-0.6204,2.2605,7.093
26.2770,-6.8849,-0.2037,3.1565,7.577
26.2860,-5.3797,1.6384,3.5270,6.638
26.3460,-4.2090,3.1822,4.1676,6.724
26.3520,-3.5317,3.8451,4.1202,6.651
26.3540,-4.1678,3.8194,2.5453,6.200
26.3600,-4.0187,3.6262,0.0740,5.413
26.3630,-3.6422,2.8875,-2.9256,5.492
26.3650,-2.2714,1.8320,-4.2440,5.151
26.3680,2.5655,-2.0146,-2.0939,3.876
26.3740,10.9312,-7.7418,1.0737,13.438
26.4010,16.7416,-14.1221,3.4813,22.177
26.4020,15.6882,-18.5597,3.7946,24.596
26.4030,8.8609,-22.9984,3.0638,24.836
26.4130,0.6310,-24.4957,2.9593,24.682
26.4170,-0.5184,-17.2423,-2.7098,17.462
26.4820,-0.9754,-12.2808,-7.7478,14.553
26.4900,-3.1391,-8.1811,-13.8801,16.415
26.4930,-5.4480,-4.2272,-19.0124,20.224
26.4960,-5.5889,0.1205,-23.1090,23.776
26.4990,-6.1263,2.4436,-23.6935,24.594
26.5080,-7.5378,2.6838,-21.5666,23.003
26.5110,-7.0423,2.5027,-15.1706,16.912
26.5140,-4.3785,2.7781,-9.2666,10.619
26.5160,-0.2405,2.3332,-3.1629,3.938
26.5200,2.1864,2.8426,3.3907,4.935
26.5480,4.7735,4.1510,8.8914,10.912
26.5490,6.6385,5.1391,10.9363,13.787
26.5500,8.7609,6.4442,11.0863,15.530
26.6140,9.5819,7.3442,9.7217,15.500
26.6230,9.9754,6.8985,5.2922,13.233
26.6290,9.5614,5.3190,0.3510,10.947
26.6320,7.8831,3.2297,-5.3668,10.069
26.6350,6.0490,1.1987,-10.1310,11.860
26.6490,6.1141,1.0688,-10.2841,12.012
26.6520,5.5582,-1.3255,-9.7399,11.292
26.6540,5.6948,-1.8287,-8.1240,10.088
26.6610,5.1164,-2.2382,-6.9317,8.901
26.6640,3.7462,-2.6076,-6.1187,7.634
26.6670,1.3498,-3.0078,-5.5227,6.432
26.6690,-1.8514,-3.5356,-4.8108,6.251
26.6780,-5.1547,-4.0354,-3.1115,7.248
26.6860,-8.9043,-4.5732,-0.4080,10.018
26.6970,-10.2656,-4.6703,1.1655,11.338
26.7500,-8.1549,-4.3267,1.0392,9.290
26.7550,-6.1779,-4.2913,2.1084,7.812
26.7610,-2.1024,-4.0727,4.3648,6.329
26.7630,1.2172,-3.4718,4.2721,5.638
26.7650,3.5355,-2.4589,3.5299,5.568
26.7670,3.9706,-1.2225,2.7474,4.981
26.7700,3.1156,-1.1469,1.0426,3.480
26.8070,0.8896,-4.2946,-0.2885,4.395
26.8080,-1.7575,-11.3268,-1.5557,11.567
26.8090,-1.6505,-16.1060,-5.8234,17.206
26.8100,4.6995,-9.3566,-9.9810,14.466
26.8710,10.0286,-4.0630,-14.0962,17.770
26.8850,13.1439,-2.1290,-14.6761,19.816
26.9040,13.8620,-0.5623,-10.5174,17.409
26.9050,10.0201,-1.7267,-6.6887,12.171
26.9060,6.1237,-3.5760,-3.4033,7.866
26.9070,5.1494,-3.5211,-1.8106,6.496
26.9080,4.6377,-2.4756,1.8597,5.576
26.9080,5.4604,-1.0871,5.0106,7.490
26.9090,5.1998,-0.0586,6.1661,8.066
26.9100,4.5509,0.4878,3.7763,5.934
26.9200,5.5882,1.0041,3.7446,6.801
26.9800,7.1111,1.3627,4.0714,8.307
26.9860,8.4502,1.8848,2.9308,9.140
26.9870,8.3823,2.7269,0.6649,8.840
26.9900,5.9050,2.9210,-0.7624,6.632
26.9910,3.7701,2.8406,-1.3008,4.896
26.9930,1.9184,2.8475,-2.0311,3.989
26.9950,0.3431,2.2812,-2.5013,3.403
27.0400,-0.6258,1.7988,-2.6187,3.238
27.0440,-1.4459,1.4301,-2.6570,3.346
27.0470,-1.5905,0.9672,-2.5588,3.164
27.0500,-1.6352,0.4707,-2.5941,3.102
27.0520,-0.3643,0.0543,-5.5240,5.536
27.0540,3.9232,-0.8806,-11.5038,12.186
27.0710,5.2156,-2.7847,-10.4312,11.990
27.0720,1.6568,-2.9969,-4.7487,5.855
27.1360,0.9270,-1.0296,0.6440,1.528
27.1430,0.4784,0.8943,2.2425,2.461
27.1460,0.0205,1.3893,1.7902,2.266
27.1490,-0.7842,1.1807,0.3217,1.453
27.1500,-1.2399,1.1695,0.3975,1.750
27.1520,-3.7847,1.3417,2.2712,4.613
27.1540,-6.5702,1.6034,4.1037,7.911
27.1550,-6.3417,2.6103,5.0023,8.489
27.1590,-3.5254,3.8473,4.7428,7.052
27.1680,-1.8774,3.5772,3.9735,5.667
27.1780,-2.4574,2.0395,3.9303,5.064
27.2370,-1.8109,1.3850,4.2240,4.800
27.2470,-3.1938,0.9539,4.1276,5.305
27.2490,-5.4319,0.2129,3.5282,6.481
27.2500,-6.2069,-0.0941,2.4323,6.667
27.2520,-3.2840,2.4303,4.0534,5.755
27.2540,-2.7952,4.0867,5.2941,7.249
27.2550,-4.0963,4.3236,4.4786,7.452
27.2690,-4.6435,4.4003,2.1687,6.755
27.2700,-5.6483,3.1920,-0.6480,6.520
27.3370,-4.8291,1.8107,-1.9267,5.506
27.3500,-2.5524,-0.0319,-1.9280,3.199
27.3530,1.7077,-3.4100,-0.4233,3.837
27.3560,12.7582,-11.9233,2.2329,17.605
27.3600,15.5091,-18.0468,2.2034,23.897
27.3640,12.0410,-20.5424,-1.9050,23.887
27.3680,7.9814,-20.0755,-3.8097,21.937
27.3710,3.5853,-17.0170,-1.9802,17.503
27.3730,1.9697,-12.5965,-1.5790,12.847
27.3780,-0.1940,-9.3227,-3.1435,9.840
27.3790,-3.5392,-7.5305,-7.7779,11.390
27.3880,-4.9010,-5.0533,-14.7491,16.343
27.4530,-5.9906,-2.2052,-20.1874,21.173
27.4630,-7.3798,0.0482,-23.7964,24.914
27.4660,-7.6674,1.2390,-22.8071,24.093
27.4690,-5.8944,1.4038,-16.9560,18.006
27.4720,-3.4807,1.1127,-11.0551,11.643
27.4770,-1.1218,1.8037,-6.2752,6.625
27.4790,1.1561,2.2254,-0.2070,2.516
27.4800,1.3097,2.3202,-0.0020,2.664
27.4800,4.7834,3.6067,7.0997,9.290
27.4880,6.3881,4.4484,10.5431,13.105
27.5560,7.3172,5.3723,11.9888,15.038
27.5670,8.6545,5.8919,9.6724,14.254
27.5690,9.4455,4.7879,4.5269,11.517
27.5720,8.4588,2.8673,-1.9345,9.139
27.5760,6.1058,0.8393,-8.8366,10.774
27.5820,4.0174,-0.3619,-11.8355,12.504
27.5860,2.8322,-1.1282,-11.8881,12.273
27.5880,2.7668,-1.2607,-10.7696,11.191
27.5890,2.0060,-1.2291,-8.9314,9.236
27.5900,0.7118,-1.0000,-7.6517,7.749
27.6000,-0.5552,-0.5611,-6.6055,6.652
27.6060,-2.1872,-0.7140,-5.7991,6.239
27.6690,-4.6603,-1.1983,-3.8531,6.164
27.6840,-6.9375,-1.4676,-1.3628,7.221
27.6870,-7.9151,-2.0945,2.2030,8.479
27.6890,-6.2372,-3.1007,2.4638,7.388
27.6920,-3.8739,-4.6734,2.9645,6.755
27.6950,-1.9951,-6.1347,4.2290,7.714
27.6990,1.7404,-6.1303,4.9701,8.082
27.7010,5.2072,-4.2345,4.8561,8.284
27.7030,5.3579,-2.0178,4.1347,7.062
27.7150,5.1378,-1.2689,3.5037,6.347
27.7180,4.5488,-3.7148,1.6776,6.108
27.7810,1.4403,-9.8918,-2.8623,10.398
27.7900,1.7553,-11.5184,-6.7447,13.463
27.8000,6.1637,-7.0005,-11.4575,14.774
27.8020,8.7710,-3.8396,-13.6134,16.643
27.8050,7.5733,-3.8350,-11.1816,14.039
27.8090,5.5365,-4.7304,-8.6565,11.312
27.8120,3.7796,-5.6123,-6.7286,9.542
27.8140,3.5677,-4.9631,-4.8541,7.805
27.8160,4.1906,-3.8243,-3.4018,6.615
27.8190,5.3974,-3.0537,-2.1256,6.556
27.8400,6.2508,-2.2413,-0.3966,6.652
27.8490,7.1065,-1.3476,0.1792,7.235
27.8510,7.5883,-0.3921,1.0416,7.669
27.8580,8.3330,0.1371,2.8372,8.804
27.8660,10.0275,0.5755,4.0102,10.815
27.9250,10.2244,1.1460,4.4747,11.219
27.9310,9.0630,1.7777,2.3768,9.537
27.9330,7.0710,2.0533,1.0126,7.432
27.9350,4.6790,2.1622,-0.5536,5.184
27.9380,2.3280,2.1625,-2.0734,3.794
27.9410,0.4966,2.3266,-2.8064,3.679
27.9430,-0.5397,2.5988,-2.8988,3.930
27.9840,-1.3496,2.7722,-2.8213,4.179
27.9900,-0.2808,2.7819,-2.4723,3.732
27.9970,1.5135,2.5221,-2.4788,3.847
28.0020,5.0922,1.7160,-4.9020,7.274
28.0060,9.7064,-0.0818,-10.6466,14.407
28.0110,9.6006,-0.0778,-10.6757,14.358
28.0180,2.8044,-2.7751,-4.2067,5.767
28.0220,1.1525,-0.2129,0.6614,1.346
28.0350,0.8856,-0.1303,0.8521,1.236
28.0450,-2.5325,2.0535,3.2565,4.608
28.0500,-4.2548,1.8217,3.0674,5.553
28.0570,-6.2946,1.7310,2.8186,7.111
28.1210,-7.1247,2.4845,3.9888,8.535
28.1220,-7.7377,3.3082,6.4950,10.630
28.1230,-7.2471,3.5962,6.7267,10.521
28.1230,-4.7175,3.1446,4.0368,6.960
28.1240,-3.8831,1.6569,2.7652,5.047
28.1240,-2.9028,1.5316,3.4260,4.744
28.1300,-4.4297,1.4629,2.9692,5.530
28.1400,-6.2646,1.2595,3.7324,7.400
28.1520,-6.9724,1.5777,3.8740,8.131
28.1690,-5.8305,2.9271,3.7154,7.508
28.1720,-4.7185,3.6610,3.0468,6.705
28.2350,-5.4521,3.0234,1.8092,6.492
28.2360,-6.5408,1.4862,-0.0629,6.708
28.2380,-5.2150,-0.4084,-1.9143,5.570
28.2390,-1.5312,-2.7980,-2.0673,3.801
28.2400,9.1844,-10.5732,0.6561,14.021
28.2470,18.3806,-16.4840,2.7064,24.837
28.2510,18.9252,-18.6460,0.6899,26.577
28.2530,16.2713,-18.9983,-2.0269,25.096
28.2680,10.3460,-18.0972,-0.9785,20.869
28.2690,5.3373,-14.9689,1.0081,15.924
28.3340,1.7320,-10.7944,-0.7609,10.959
28.3350,-2.7214,-9.3422,-5.5710,11.212
28.3360,-5.9232,-8.2928,-12.7126,16.293
28.3380,-7.4467,-5.8299,-18.2601,20.564
28.3400,-8.9445,-3.0121,-22.3601,24.270
28.3420,-9.8293,-0.6152,-24.0590,25.997
28.3460,-7.2500,0.2720,-20.9926,22.211
28.3480,-3.0344,1.3625,-14.1097,14.497
28.3620,0.1905,2.0719,-8.2813,8.539
28.4240,0.3563,2.0925,-8.1757,8.447
28.4250,3.4955,3.5696,1.7387,5.290
28.4260,4.8011,4.6329,5.7083,8.781
28.4270,5.7544,5.7930,8.1895,11.565
28.4280,6.7954,6.7129,9.3127,13.340
28.4280,7.8307,7.1218,7.6810,13.078
28.4290,8.6241,6.4116,3.5171,11.307
28.4890,8.6594,4.8425,-2.1474,10.151
28.5000,7.5443,2.9610,-6.8319,10.600
28.5040,6.0653,1.3220,-10.3721,12.088
28.5080,5.7723,0.2386,-10.4523,11.943
28.5160,5.7757,-0.5524,-8.1359,9.993
28.5190,4.7557,-1.2788,-6.0831,7.827
28.5220,3.0606,-1.3315,-5.2261,6.201
28.5230,1.1406,-1.2389,-4.8504,5.134
28.5260,-0.7760,-1.1159,-4.7246,4.916
28.5300,-3.2020,-1.5061,-4.6623,5.853
28.5480,-5.7577,-2.3148,-3.5617,7.155
28.5490,-5.8214,-2.1897,-3.4250,7.100
28.5570,-6.5605,-5.1709,1.0220,8.416
28.6060,-3.7353,-6.7672,3.3423,8.421
28.6150,-0.4665,-7.7320,4.5445,8.981
28.6190,2.0821,-7.4631,4.9581,9.199
28.6210,3.3784,-5.3148,4.7572,7.892
28.6230,3.9333,-2.5322,2.6230,5.363
28.6250,2.6471,-0.9798,1.2768,3.098
28.6290,0.6660,-3.4439,1.0065,3.649
28.6580,-0.8433,-10.4443,-1.5973,10.599
28.6590,-0.0733,-16.4084,-4.9031,17.125
28.6600,5.2814,-14.1294,-6.8143,16.552
28.6680,9.4871,-9.0042,-9.3931,16.103
28.7230,12.4387,-3.5470,-11.5426,17.336
28.7320,12.3001,-0.2520,-9.8419,15.755
28.7340,10.4196,0.9032,-7.9267,13.123
28.7360,8.3774,-0.1301,-5.7246,10.147
28.7390,7.8165,-1.0665,-3.4165,8.597
28.7410,7.4800,-1.6977,-1.8912,7.900
28.7450,6.7724,-2.3008,-1.2941,7.269
28.7490,6.8398,-2.1198,-0.2733,7.166
28.7770,7.1687,-0.8961,0.1360,7.226
28.7780,6.3801,-0.2698,0.9130,6.451
28.7780,5.7067,0.2633,2.1611,6.108
28.7860,5.4264,0.2361,3.5497,6.489
28.7980,6.4476,1.0002,3.9396,7.622
28.8060,6.2441,2.0709,2.6675,7.099
28.8790,5.0220,2.4180,1.8752,5.881
28.8910,3.3893,2.5104,1.1872,4.382
28.9260,2.1291,2.5316,0.2963,3.321
28.9330,1.6082,2.6982,-0.5483,3.189
28.9370,0.3784,2.4568,-1.8159,3.078
28.9420,-0.4624,2.4611,-2.7820,3.743
28.9520,-1.4995,2.0553,-3.6088,4.415
28.9540,-1.8251,1.5688,-3.8650,4.553
28.9570,-1.6803,1.2878,-3.4198,4.022
28.9590,-1.0579,0.8927,-2.6185,2.962
28.9600,1.7211,-0.0655,-4.8180,5.117
28.9610,4.3393,-1.7783,-7.0256,8.447
28.9620,3.8171,-2.5239,-6.0956,7.622
28.9630,3.0765,-1.3299,-1.2888,3.591
28.9640,2.3406,0.3038,1.5891,2.845
28.9670,0.9337,0.7829,2.8796,3.127
28.9890,-0.7327,0.4796,1.5756,1.803
28.9930,-3.2293,0.9138,0.5857,3.407
29.0550,-5.7661,2.1698,2.0508,6.493
29.0560,-6.2779,3.9310,4.5459,8.691
29.0560,-6.7600,4.1624,6.0769,9.998
29.0570,-6.5877,2.1802,3.7486,7.887
29.0580,-4.3527,0.1081,1.9565,4.773
29.0590,-2.4529,-1.0096,1.6681,3.133
29.0600,-2.3512,-1.0913,2.1971,3.398
29.1250,-4.3583,-1.3197,2.5018,5.196
29.1330,-5.2769,-0.9774,2.9746,6.136
29.1360,-4.3582,1.3133,3.5505,5.773
29.1390,-4.2894,1.3084,3.5269,5.705
29.1400,-5.6682,2.1952,2.2108,6.468
29.1430,-5.0061,2.2122,1.4233,5.655
29.1460,-3.8531,1.4156,-0.2637,4.113
29.1490,-2.3917,0.0558,-1.5571,2.854
29.1510,-0.3975,-1.2874,-1.4066,1.948
29.1570,4.0860,-5.5288,0.2647,6.880
29.1680,13.4907,-11.9908,1.6453,18.124
29.2390,14.5746,-14.3849,0.3650,20.481
29.2470,12.3175,-14.7992,-2.6267,19.433
29.2500,8.2641,-14.2478,-2.7713,16.703
29.2520,4.8379,-12.6967,-1.1425,13.635
29.2540,2.1518,-9.7544,-0.8180,10.022
29.2560,0.7127,-7.3320,-3.4790,8.147
29.2630,-3.2758,-6.0584,-9.5223,11.752
29.2670,-6.2578,-4.4019,-16.8795,18.532
29.2700,-7.2224,-1.7278,-22.3318,23.534
29.2720,-7.2069,0.9100,-22.8944,24.019
29.2980,-7.9348,1.8442,-18.5384,20.249
29.2990,-7.4884,1.1071,-14.0100,15.924
29.3000,-4.9863,1.4899,-9.5017,10.833
29.3560,-1.4496,1.7326,-5.6850,6.117
29.3690,1.6306,2.6439,-0.8043,3.209
29.3720,4.5188,3.4437,4.6343,7.332
29.3750,6.4896,3.9764,9.5696,12.227
29.3800,7.9620,4.4561,12.3294,15.338
29.3880,8.8334,5.3018,12.6653,16.326
29.3890,9.7258,5.2754,9.3190,14.466
29.3900,8.3644,3.3671,1.5402,9.147
29.3910,6.5682,1.0987,-6.6308,9.398
29.4000,4.9418,-0.9791,-13.7407,14.635
29.4060,2.5664,-2.3602,-14.2786,14.698
29.4660,2.3104,-2.7437,-12.5650,13.067
29.4730,3.6672,-2.1777,-9.8157,10.702
29.4750,3.4443,-1.4352,-6.8306,7.783
29.4760,2.5529,-0.5213,-4.5509,5.244
29.4790,1.0039,0.2581,-2.1451,2.382
29.4800,-1.2068,0.5492,-1.2544,1.825
29.4820,-4.5705,0.4360,-0.5966,4.630
29.5230,-7.8382,-0.6253,0.3356,7.870
29.5270,-10.2498,-2.7580,2.6311,10.936
29.5320,-9.4773,-5.2151,3.8665,11.488
29.5340,-7.2478,-6.7816,4.1160,10.745
29.5370,-3.3221,-7.3680,4.4311,9.217
29.5390,0.5879,-6.9888,3.2980,7.750
29.5490,2.9964,-5.1582,1.8148,6.235
29.5570,3.4906,-3.8622,-0.0653,5.206
29.5680,1.3888,-7.3815,-3.0832,8.119
29.5780,0.1367,-15.2653,-4.6208,15.950
29.6260,2.4780,-22.1857,-7.2957,23.486
29.6280,9.7994,-12.2652,-11.0200,19.181
29.6290,11.9201,-2.0247,-12.5545,17.430
29.6290,12.0329,2.4411,-11.5272,16.841
29.6300,10.9534,3.8319,-9.1071,14.751
29.6890,8.6458,2.7638,-6.8608,11.378
29.6990,6.4172,0.6916,-4.1954,7.698
29.7020,5.6606,-1.4214,-2.4876,6.344
29.7050,4.8234,-3.4064,-1.2215,6.030
29.7080,4.4087,-4.3512,-0.6007,6.223
29.7120,5.1953,-4.0496,0.2573,6.592
29.7160,6.1950,-2.4676,0.4583,6.684
29.7200,5.7561,-1.1488,0.8642,5.933
29.7220,5.2771,-0.3203,1.8190,5.591
29.7540,4.8639,0.3691,4.4967,6.634
29.7570,5.2450,1.4360,4.6482,7.154
29.7600,5.2574,2.3069,1.0672,5.840
29.7630,4.9623,2.8786,-0.7841,5.790
29.7670,4.3067,3.0999,-1.1952,5.439
29.8230,3.0873,2.8645,-1.9534,4.642
29.8350,1.7339,2.6439,-2.6428,4.121
29.8400,0.5657,2.5489,-2.9119,3.911
29.8450,-0.3615,2.5927,-2.5282,3.639
29.8500,-1.3381,2.1026,-1.7989,3.074
29.8550,-2.2876,1.5022,-1.6519,3.197
29.8720,-2.4917,0.9459,-1.7896,3.210
29.8730,-2.2645,0.4249,-2.3005,3.256
29.8740,1.2653,-0.2434,-5.9939,6.131
29.8750,5.6617,-1.4273,-9.6008,11.237
29.8880,7.1509,-2.6605,-6.9477,10.319
29.8890,3.9257,-2.4863,-2.9316,5.494
29.9450,1.2878,0.1515,0.9250,1.593
29.9500,0.7528,2.1464,4.0332,4.630
29.9520,-0.5745,2.3612,5.1818,5.723
29.9540,-4.0720,1.6715,3.9749,5.931
29.9560,-7.1363,1.5829,2.4342,7.704
29.9580,-7.5068,2.4583,3.3697,8.588
29.9600,-6.7970,3.4425,5.4431,9.364
30.0080,-5.7054,3.2813,4.5969,8.028
30.0090,-4.3746,1.9790,3.4929,5.938
30.0100,-3.3099,1.2884,3.4903,4.980
30.0110,-4.2190,0.3413,3.5574,5.529
30.0120,-5.8801,-0.5235,3.8749,7.061
30.0720,-7.3473,-0.7089,4.1059,8.446
30.0800,-6.9243,0.5495,4.1697,8.101
30.0860,-6.1489,1.9480,3.3683,7.277
30.0900,-5.5308,2.4814,2.6010,6.596
30.0920,-7.1953,1.4819,0.5637,7.368
30.0940,-7.3504,0.3662,-2.2059,7.683
30.1020,-5.0739,-0.4633,-3.3673,6.107
30.1050,-0.4174,-3.5850,-2.0914,4.171
30.1080,10.2741,-10.4219,1.2689,14.690
30.1090,10.5376,-10.4922,1.1497,14.915
30.1180,13.9418,-17.3631,-0.3384,22.270
30.1260,12.2277,-17.8837,-1.3931,21.709
30.1850,8.0132,-16.8907,-0.3945,18.699
30.1920,3.7113,-12.7938,-0.3711,13.326
30.1930,1.2045,-9.1801,-2.8124,9.677
30.1950,-1.4406,-6.7477,-8.2098,10.724
30.1990,-5.2447,-4.7379,-16.9758,18.388
30.2030,-6.2399,-1.3214,-22.7169,23.595
30.2060,-8.4303,0.4356,-23.8222,25.274
30.2120,-9.7503,1.8310,-20.4394,22.720
30.2440,-10.4875,1.9935,-13.9298,17.550
30.2450,-7.0585,1.5322,-8.1708,10.906
30.2460,-2.4838,2.0990,-4.4893,5.543
30.3250,2.8811,2.7640,-0.9067,4.094
30.3430,5.3752,3.6429,4.6025,7.959
30.3450,7.6120,3.8268,8.3586,11.935
30.3470,9.5569,4.6786,11.4437,15.626
30.3530,10.3945,5.6224,11.7504,16.665
30.3580,10.0248,4.7762,6.8182,13.031
30.3590,7.2268,3.1847,-1.3698,8.015
30.3590,4.2946,1.4763,-8.1505,9.330
30.3600,2.6781,-0.1930,-13.1150,13.387
30.3610,2.3199,-1.3621,-13.6119,13.875
30.3610,2.9557,-2.0932,-11.2539,11.822
30.3620,3.3123,-2.0941,-8.2242,9.110
30.3890,2.6236,-1.8240,-5.3586,6.239
30.3900,1.7597,-1.3340,-3.6409,4.258
30.3910,0.1179,-0.4748,-2.0459,2.104
30.4020,-2.1727,-0.0905,-1.4711,2.625
30.4060,-5.5373,-0.3334,-0.0840,5.548
30.4600,-7.7059,-1.3485,1.2918,7.929
30.4720,-7.9358,-2.3846,1.9057,8.503
30.4750,-5.7608,-3.4328,1.9106,6.973
30.4790,-3.5169,-4.3209,1.9611,5.906
30.4820,-0.8085,-5.0307,1.3253,5.265
30.4870,0.4700,-5.7075,0.2913,5.734
30.4880,0.9631,-6.0248,-0.2939,6.108
30.4890,1.0496,-5.6766,-0.5990,5.804
30.5100,-0.1254,-7.9607,-0.9568,8.019
30.5110,-1.4789,-13.9206,-1.6424,14.095
30.5210,1.5557,-17.0628,-4.3017,17.665
30.5260,8.5704,-8.2318,-7.2616,13.926
30.5770,10.9663,-2.1061,-7.5602,13.485
30.5860,11.0051,0.8572,-8.1749,13.736
30.5900,10.3104,3.0341,-7.1079,12.885
30.5930,8.6499,2.8549,-6.0443,10.932
30.5970,7.6252,0.9267,-4.6606,8.985
30.6060,6.7616,-1.3909,-3.5859,7.779
30.6100,5.1701,-3.7341,-2.5310,6.861
30.6160,3.8213,-4.7826,-1.2663,6.251
30.6180,3.2079,-3.8285,-0.3924,5.010
30.6280,3.9571,-1.7744,0.1702,4.340
30.6380,4.6401,0.1369,0.5501,4.675
30.6470,4.3201,1.2173,0.9439,4.586
30.6570,3.9979,1.5767,2.5162,4.980
30.6680,4.2776,2.0817,4.0426,6.243
30.6780,4.7042,2.9911,3.5447,6.606
30.7390,4.2271,3.2378,1.4501,5.519
30.7430,3.3306,3.1427,-1.1237,4.715
30.7460,2.9805,2.9485,-2.6818,4.977
30.7490,1.8523,2.5349,-3.9819,5.071
30.7510,0.2722,1.7201,-4.2116,4.557
30.7530,-0.6931,1.5110,-3.8922,4.232
30.7560,-1.6123,1.1880,-3.5950,4.115
30.7590,-2.3725,0.8090,-3.4428,4.259
30.7680,-2.0185,0.6484,-3.9068,4.445
30.7790,-0.4261,0.2741,-5.9211,5.943
30.7930,1.3680,-0.4277,-5.9639,6.134
30.7980,1.8675,-0.8116,-4.0181,4.505
30.8710,1.6936,-0.6974,-0.7407,1.976
30.8760,0.5774,-0.0535,0.9639,1.125
30.8830,0.5121,0.5754,2.6178,2.729
30.8960,0.5222,0.4861,2.6471,2.742
30.9020,-0.6002,-0.1342,0.8949,1.086
30.9060,-2.3419,-0.3640,1.3956,2.750
30.9080,-4.8896,1.0697,3.2708,5.979
30.9090,-6.0641,2.9957,6.3380,9.269
30.9100,-6.4592,3.8336,6.7586,10.104
30.9110,-5.4668,2.8405,4.3033,7.515
30.9120,-3.8881,1.1880,3.6172,5.442
30.9280,-2.7172,0.8991,3.6881,4.668
30.9290,-3.5953,0.3047,3.7104,5.176
30.9890,-5.4569,-0.3417,3.7143,6.610
30.9940,-6.3680,0.2547,4.0407,7.546
31.0000,-6.0300,1.8814,4.3466,7.668
31.0040,-5.9841,2.7959,2.9284,7.225
31.0060,-5.8219,2.7557,1.2081,6.553
31.0090,-6.3423,2.0315,-1.5543,6.839
31.0110,-6.3211,0.8852,-3.5828,7.320
31.0220,-3.3524,-0.1649,-3.6772,4.979
31.0260,5.7027,-4.8240,-0.7275,7.505
31.0280,13.5944,-10.5772,1.6915,17.307
31.0500,13.4339,-14.2157,2.0478,19.666
31.0510,10.7472,-15.5985,-0.3641,18.946
31.1100,7.3489,-16.4275,-1.7702,18.083
31.1160,3.0513,-16.3041,-0.9363,16.614
31.1190,0.9190,-12.3810,-1.4850,12.504
31.1210,-0.5674,-8.9543,-4.1313,9.878
31.1230,-3.3260,-6.6799,-9.2702,11.900
31.1250,-5.6240,-4.5404,-14.1309,15.872
31.1270,-7.4123,-1.8866,-17.8315,19.403
31.1300,-7.5165,0.8151,-20.5664,21.912
31.1780,-6.2349,2.0492,-19.4192,20.498
31.1790,-5.4855,2.1390,-15.5224,16.602
31.1800,-3.8462,1.9107,-9.4321,10.364
31.1800,0.2692,2.5145,-6.6784,7.141
31.1810,2.8725,3.0019,-2.1250,4.667
31.1880,4.2507,3.8164,2.3708,6.185
31.2450,5.2544,4.5783,7.0023,9.879
31.2550,6.4854,4.9460,10.1379,13.012
31.2590,7.7543,5.1646,10.0102,13.675
31.2620,7.9675,4.9940,6.9678,11.704
31.2670,6.7961,4.3015,0.6713,8.071
31.2720,5.7473,2.9799,-4.8400,8.083
31.2750,4.4942,1.2287,-9.5101,10.590
31.2780,4.0318,-0.3806,-11.7845,12.461
31.2800,3.2353,-1.9378,-10.8226,11.461
31.3100,3.9162,-2.4768,-8.6482,9.811
31.3110,3.8668,-2.5038,-6.9413,8.331
31.3110,3.2321,-2.0099,-6.0429,7.142
31.3210,1.2020,-1.3234,-4.7222,5.049
31.3260,-0.9125,-0.7543,-3.8201,3.999
31.3910,-3.4204,-0.6174,-3.4938,4.928
31.3970,-6.8941,-1.0441,-2.0626,7.271
31.4000,-8.9362,-1.8320,-0.0444,9.122
31.4030,-9.5227,-2.8924,2.0358,10.158
31.4050,-8.0392,-3.6541,3.1058,9.361
31.4080,-5.5036,-4.6243,5.2480,8.900
31.4100,-1.5344,-4.9729,5.9797,7.927
31.4110,-1.5137,-4.9378,6.0638,7.965
31.4600,3.5217,-5.2368,4.2874,7.629
31.4640,3.1016,-8.4304,3.9648,9.819
31.4670,2.4269,-14.3577,1.7440,14.665
31.4720,4.8754,-15.0623,-4.5719,16.479
31.4750,8.2701,-7.7192,-10.2637,15.275
31.4800,9.3914,-1.9025,-14.1386,17.080
31.4840,9.8178,0.9920,-14.3026,17.376
31.4870,8.8242,1.8799,-11.6214,14.713
31.4990,6.4813,0.6493,-9.3550,11.399
31.5080,4.5924,-1.2467,-7.0273,8.487
31.5660,3.9970,-3.3221,-5.3380,7.450
31.5680,4.1163,-4.8632,-3.1763,7.119
31.5690,4.8932,-4.7771,-1.8220,7.077
31.5700,6.0116,-3.7915,-1.1270,7.196
31.5710,7.2677,-2.8550,0.3415,7.816
31.5720,7.5391,-1.4475,3.0819,8.272
31.5770,6.6384,-0.5864,4.9692,8.313
31.6500,5.8233,0.2554,7.9540,9.861
31.6630,6.7778,1.8577,7.5297,10.300
31.6670,7.0785,3.1241,3.4378,8.467
31.6710,5.5981,3.6374,-0.0474,6.676
31.6730,4.3210,3.7269,-1.8280,5.992
31.6770,2.7592,3.2417,-3.1708,5.308
31.6800,1.1874,2.5869,-4.1369,5.022
31.6830,-0.0969,2.0473,-4.4888,4.935
31.6860,-1.0024,1.2911,-3.9647,4.288
31.6910,-1.4507,0.7801,-3.3140,3.701
31.6940,-1.7271,0.3937,-2.9520,3.443
31.7040,-1.3898,0.2514,-2.4623,2.839
31.7100,-0.1672,0.2263,-2.8072,2.821
31.7220,3.2973,-0.0946,-6.7855,7.545
31.7290,4.7515,-0.9742,-8.1954,9.523
31.8140,2.5608,-1.3069,-5.7931,6.467
31.8220,1.5910,-0.2172,-1.3592,2.104
31.8240,1.0249,1.1485,1.5121,2.158
31.8260,1.2985,1.6678,3.1545,3.797
31.8280,0.0516,1.3654,2.9730,3.272
31.8300,-1.5829,0.9108,3.0567,3.561
31.8320,-4.4021,1.2341,2.8647,5.395
31.8360,-5.6873,2.4341,4.1719,7.462
31.8380,-5.8217,3.7254,5.4330,8.791
31.8410,-5.7381,3.3989,5.1430,8.422
31.8500,-4.8755,1.9034,3.7479,6.437
31.8510,-3.6583,1.0287,2.5518,4.577
31.8770,-2.9430,0.4840,2.9479,4.194
31.8770,-4.0320,-0.3540,3.8602,5.593
31.8780,-5.1330,-0.6142,4.1080,6.603
31.8890,-5.9529,-0.0742,4.2559,7.318
31.8970,-5.1117,1.6015,4.1920,6.802
31.9590,-4.7129,2.3733,3.2192,6.181
31.9680,-4.8103,2.5165,1.1395,5.547
31.9740,-5.0155,1.9239,-1.0522,5.474
31.9770,-4.0072,1.1213,-3.4522,5.407
31.9800,-1.0867,-0.5709,-3.3777,3.594
31.9830,5.8675,-5.4138,-0.8033,8.024
31.9880,13.6154,-11.4798,2.3238,17.960
31.9900,13.4799,-15.4282,3.1433,20.727
31.9910,9.4231,-18.1585,0.8184,20.474
32.0080,4.9660,-18.9012,-0.4420,19.548
32.0090,1.2270,-16.0713,-0.9215,16.144
32.0660,0.7172,-11.2864,-3.0046,11.701
32.0760,-1.8834,-8.2657,-5.7188,10.226
32.0780,-3.6453,-6.1276,-10.3649,12.580
32.0810,-5.3500,-3.1368,-16.6977,17.812
32.0840,-5.7108,-0.5505,-20.1136,20.916
32.0880,-6.7350,1.5137,-21.7026,22.774
32.0900,-6.2265,2.6199,-19.4683,20.607
32.0930,-4.7923,2.4408,-13.6241,14.647
32.1040,-2.9148,2.1044,-8.9803,9.673
32.1070,0.4543,2.8097,-4.8059,5.585
32.1780,3.1204,3.4894,-0.6682,4.729
32.1870,4.9938,4.1602,4.0817,7.675
32.1890,5.8706,4.4963,7.5730,10.584
32.1910,6.9364,4.9804,9.8003,12.999
32.1920,7.5208,5.6562,10.7251,14.268
32.1940,8.1158,5.1666,7.7449,12.351
32.1960,7.2120,3.7572,2.7302,8.578
32.1970,6.2787,1.8848,-3.8203,7.587
32.1990,5.0423,0.0920,-8.8862,10.218
32.2110,4.3765,-1.8557,-12.7123,13.572
32.2890,4.1121,-3.4798,-12.0030,13.156
32.2960,4.9401,-3.9763,-9.9711,11.817
32.2990,3.8441,-3.6758,-8.0495,9.648
32.3030,2.3498,-2.8807,-5.7511,6.848
32.3050,0.8492,-1.8547,-4.2730,4.735
32.3080,0.7139,-1.6992,-4.1291,4.522
32.3120,-4.2016,-0.8435,-2.9678,5.213
32.3140,-7.2207,-1.0264,-1.1139,7.378
32.3160,-9.9433,-1.4607,2.1504,10.277
32.3200,-9.2496,-1.8634,3.2197,9.970
32.3230,-7.6195,-2.6367,4.6195,9.292
32.3380,-5.2973,-3.5199,6.6842,9.227
32.3390,-1.3086,-3.9103,8.0639,9.057
32.3460,1.0645,-4.5348,6.4678,7.971
32.4110,2.1413,-5.6036,5.4014,8.072
32.4250,2.3538,-9.1411,4.5981,10.500
32.4290,2.1894,-15.6502,1.3649,15.861
32.4320,4.1335,-12.4953,-6.9679,14.892
32.4390,7.0404,-2.8699,-14.2079,16.114
32.4470,9.0859,-0.3121,-15.9719,18.378
32.4510,10.6654,0.3216,-14.2596,17.810
32.4540,8.7057,-1.2032,-10.2330,13.489
32.4580,5.7126,-3.8262,-6.1364,9.216
32.4590,4.3280,-5.7355,-3.8581,8.156
32.4590,4.6349,-6.0642,-2.5739,8.055
32.4810,5.4744,-4.6399,-1.9108,7.426
32.4820,6.6614,-2.4399,-0.3758,7.104
32.4910,7.2381,-0.9076,0.7127,7.330
32.4970,7.5910,0.0938,2.6612,8.045
32.5650,7.4037,0.6638,4.8761,8.890
32.5750,7.7842,1.7130,6.6528,10.382
32.5800,8.6109,2.9001,5.6506,10.700
32.5830,8.8893,3.9877,2.2203,9.993
32.5870,7.2187,3.9899,-0.2881,8.253
32.5970,5.7999,3.9388,-0.7963,7.056
32.6010,4.5147,3.6177,-1.2804,5.925
32.6050,3.1027,3.1161,-1.4252,4.623
32.6080,1.3677,2.3534,-0.7670,2.828
32.6100,-0.1274,1.6528,-0.6398,1.777
32.6130,-2.2757,0.7488,-1.5177,2.836
32.6340,-3.3057,0.0286,-4.8704,5.886
32.6350,-0.6937,-0.8714,-10.4407,10.500
32.6410,1.4774,-1.7830,-9.9494,10.215
32.6470,2.0108,-1.4887,-5.0637,5.648
32.6600,1.3275,-0.0772,-0.8084,1.556
32.6690,0.2321,0.5132,2.2192,2.290
32.6780,-1.1204,0.3453,2.2936,2.576
32.6870,-1.9469,0.2389,1.2230,2.312
32.6970,-1.0369,0.1475,0.7389,1.282
32.7620,-1.1718,0.0373,1.2037,1.680
32.7650,-2.5445,0.4096,3.2512,4.149
32.7710,-4.1893,1.6185,5.5498,7.139
32.7780,-4.1605,2.7781,6.4799,8.186
32.7800,-2.9575,3.7137,4.7208,6.695
32.7820,-2.7980,3.0807,3.4332,5.395
32.7840,-2.6045,1.8771,3.2918,4.598
32.7880,-2.9362,0.7612,2.9886,4.258
32.7890,-3.5881,-1.2371,1.0140,3.928
32.8330,-6.6844,-0.4964,3.1461,7.404
32.8340,-6.3107,-0.0958,4.7693,7.911
32.8350,-5.7167,0.4918,3.4824,6.712
32.8350,-3.7136,1.9763,3.7113,5.610
32.8450,-3.8981,2.2419,4.1573,6.124
32.8510,-4.1936,2.2309,3.3208,5.796
32.8580,-3.6712,2.3130,1.6168,4.631
32.8670,-3.5902,1.7886,-0.0024,4.011
32.8770,-2.1364,1.3024,-1.4575,2.896
32.8870,0.3806,-0.4388,-1.0636,1.212
32.9370,7.8262,-6.5964,0.5490,10.250
32.9380,12.2439,-11.8662,1.5086,17.117
32.9390,11.0214,-14.1625,-0.5405,17.954
32.9390,9.0822,-14.8890,-3.0969,17.713
32.9400,5.7335,-15.0123,-2.4968,16.263
32.9470,3.2961,-13.7020,-1.4099,14.163
32.9720,1.7139,-10.2047,-1.8408,10.510
32.9760,0.4250,-7.5517,-4.5267,8.815
32.9790,-1.3682,-5.6729,-9.0911,10.803
33.0410,-2.9578,-3.2348,-13.2324,13.939
33.0440,-3.7314,-0.2932,-17.5711,17.965
33.0470,-4.8079,1.4907,-19.1162,19.768
33.0500,-5.4089,2.4641,-16.1114,17.173
33.0550,-5.2406,2.6845,-12.3542,13.686
33.0590,-4.0984,2.4292,-8.3912,9.649
33.0620,-1.3346,2.8568,-4.0482,5.131
33.0640,1.2218,3.3090,0.1427,3.530
33.1140,3.3718,3.4690,3.9174,6.225
33.1280,5.6053,3.8691,7.6285,10.227
33.1300,7.5662,4.3173,9.9279,13.208
33.1330,9.4776,4.1477,9.5907,14.107
33.1350,9.5633,4.0918,9.5504,14.121
33.1420,8.8364,1.9541,-0.0118,9.050
33.1430,6.6323,0.2912,-6.9029,9.577
33.1440,5.2528,-0.8309,-11.7844,12.929
33.1470,4.1690,-1.7115,-11.9283,12.751
33.1580,3.8435,-1.9954,-9.6532,10.580
33.1660,3.8092,-1.7922,-7.6744,8.753
33.2160,3.2186,-1.3939,-5.7019,6.694
33.2230,1.8940,-0.7156,-4.2929,4.746
33.2260,0.5875,0.1090,-3.1953,3.251
33.2270,-1.5248,0.7808,-2.7093,3.205
33.2290,-4.4208,0.5712,-1.9295,4.857
33.2310,-8.0030,-0.4055,0.2314,8.017
33.2810,-9.3433,-1.5106,2.6252,9.822
33.2830,-8.5795,-2.7624,3.9678,9.848
33.2860,-6.8574,-4.0808,5.2666,9.561
33.2890,-2.1991,-5.1189,6.1582,8.304
33.2930,1.2130,-5.3537,6.2377,8.309
33.2940,3.5952,-4.9002,4.7652,7.723
33.2980,4.4974,-4.3733,3.7338,7.300
33.3090,3.2048,-7.0343,0.3334,7.737
33.3170,1.7900,-11.8638,-4.5128,12.819
33.3740,2.5381,-13.8909,-10.7161,17.727
33.3770,6.5271,-8.5911,-13.1838,17.036
33.3810,8.1414,-4.1215,-13.3347,16.158
33.3830,8.5736,-0.8141,-12.1178,14.866
33.3850,7.2734,0.8547,-7.8905,10.765
33.3880,5.1027,0.1338,-5.1544,7.254
33.3920,3.8834,-1.8286,-2.5675,5.002
33.4420,3.8758,-3.3304,-0.9475,5.197
33.4500,4.6353,-3.6380,0.2743,5.899
33.4520,5.7920,-2.9489,1.7392,6.728
33.4590,6.9780,-1.6429,2.4856,7.587
33.4620,6.7180,-0.6633,2.4549,7.183
33.4650,6.4602,0.2326,2.3640,6.883
33.4680,6.9325,1.1150,3.5805,7.882
33.4690,8.7872,2.1617,3.9478,9.873
33.5130,9.8364,3.4178,1.5804,10.532
33.5150,8.2953,3.7299,-1.0864,9.160
33.5160,5.9042,3.3409,-1.2941,6.906
33.5160,4.2339,2.7631,-0.8298,5.123
33.5170,2.1051,1.8104,-0.7421,2.874
33.5270,0.9105,1.3009,-0.5650,1.685
33.5940,-0.0886,1.1018,-0.4807,1.205
33.5990,-1.2601,0.7341,-0.9619,1.747
33.6010,-2.4577,0.1465,-1.3657,2.815
33.6070,-2.7206,0.1851,-1.9932,3.378
33.6090,-1.6913,-0.0124,-2.6041,3.105
33.6110,-0.1493,-0.2075,-4.6075,4.615
33.6150,3.4695,-0.5611,-8.0648,8.797
33.6170,4.7128,-0.8851,-6.9774,8.466
33.6210,3.0990,-0.3773,-2.4835,3.989
33.6670,0.9008,0.7931,1.2332,1.721
