time,ax,ay,az,aT
0.9010,0.2425,-0.2081,-0.0056,0.320
0.9070,0.3335,-0.0534,0.1805,0.383
0.9160,0.3348,0.0651,0.1719,0.382
0.9270,0.1019,0.0697,0.0874,0.151
0.9370,-0.2206,0.0031,-0.0793,0.234
0.9460,-0.3881,-0.0002,-0.1662,0.422
0.9560,-0.3290,0.0823,-0.1080,0.356
0.9670,-0.2802,0.0956,-0.1539,0.334
0.9800,-0.2473,0.0220,-0.2331,0.341
0.9910,-0.2789,-0.0914,-0.3487,0.456
0.9960,-0.2607,-0.1216,-0.3292,0.437
1.0070,-0.1196,-0.0297,-0.2489,0.278
1.0160,-0.0070,0.0444,-0.2582,0.262
1.0280,-0.0554,0.0512,-0.2540,0.265
1.0400,-0.0982,0.0053,-0.1907,0.215
1.0470,-0.1710,-0.0264,-0.1694,0.242
1.0560,-0.1688,-0.0409,-0.2009,0.266
1.0670,-0.0828,-0.0524,-0.2123,0.234
1.0780,0.0202,-0.0773,-0.1403,0.161
1.0930,0.0953,-0.0741,-0.0655,0.137
1.0970,0.0461,-0.0531,0.0089,0.071
1.1080,-0.0844,-0.0299,0.1135,0.145
1.1150,-0.1586,-0.0550,0.1134,0.203
1.1270,-0.1592,-0.0676,0.0525,0.181
1.1410,-0.0913,-0.0581,-0.0462,0.118
1.1470,0.0252,-0.0322,-0.3091,0.312
1.1570,0.0034,-0.0934,-0.2735,0.289
1.1660,-0.0168,-0.1354,-0.2031,0.245
1.1790,-0.0395,-0.1470,-0.1438,0.209
1.1970,-0.0860,-0.1099,-0.1149,0.181
1.1970,-0.0899,-0.0287,-0.1651,0.190
1.2080,-0.0503,0.0325,-0.3188,0.324
1.2160,0.0347,0.0042,-0.4055,0.407
1.2270,0.0216,-0.0643,-0.4086,0.414
1.2360,-0.0252,-0.1230,-0.3728,0.393
1.2460,-0.0642,-0.1285,-0.3178,0.349
1.2560,-0.1128,-0.1158,-0.1058,0.193
1.2660,-0.0096,-0.0649,0.1438,0.158
1.2770,0.1274,-0.0238,0.3637,0.386
1.2920,0.1921,-0.0512,0.3362,0.391
1.2960,0.2567,-0.0759,0.1381,0.301
1.3080,0.2460,-0.0449,-0.0332,0.252
1.3160,0.1673,-0.0227,-0.2226,0.279
1.3280,0.1107,-0.0269,-0.2858,0.308
1.3380,0.0332,-0.0810,-0.1743,0.195
1.3480,0.0211,-0.1200,-0.0678,0.139
1.3630,0.0579,-0.1564,-0.0129,0.167
1.3670,0.0535,-0.1555,0.0097,0.165
1.3790,-0.0044,-0.1451,-0.0336,0.149
1.3910,-0.0196,-0.1203,-0.1487,0.192
1.3960,0.0390,-0.0836,-0.1907,0.212
1.4080,0.0456,-0.0705,-0.1441,0.167
1.4160,0.0664,-0.0975,-0.1709,0.208
1.4270,0.0766,-0.1216,-0.0900,0.170
1.4360,0.0813,-0.0813,0.0748,0.137
1.4470,0.1480,-0.0807,0.0664,0.181
1.4650,0.0656,-0.0792,0.0551,0.117
1.4720,-0.0516,-0.0924,0.0418,0.114
1.4880,-0.0591,-0.0787,0.0157,0.100
1.4910,0.0162,-0.0350,0.0338,0.051
1.4970,0.1123,-0.0008,0.1356,0.176
1.5080,0.1069,-0.0035,0.2219,0.246
1.5160,0.0344,-0.0079,0.0652,0.074
1.5280,-0.0282,-0.0314,-0.0299,0.052
1.5350,-0.0477,-0.0232,-0.0423,0.068
1.5500,-0.0203,-0.0234,-0.0498,0.059
1.5600,0.0500,-0.0183,0.0267,0.060
1.5660,0.1304,-0.0325,0.0546,0.145
1.5750,0.2177,0.0079,0.0147,0.218
1.5880,0.2070,0.0509,-0.0759,0.226
1.5950,0.1936,0.0507,-0.1752,0.266
1.6070,0.1045,0.0504,-0.2110,0.241
1.6150,0.0200,0.0079,-0.1537,0.155
1.6270,-0.0381,-0.0380,-0.1891,0.197
1.6350,-0.0281,-0.0647,-0.1530,0.169
1.6470,-0.0418,-0.0916,-0.1364,0.170
1.6580,-0.0645,-0.1143,-0.1380,0.191
1.6660,-0.0179,-0.1123,-0.0761,0.137
1.6760,0.0342,-0.1099,-0.0258,0.118
1.6890,0.0913,-0.1088,-0.0087,0.142
1.6950,0.1207,-0.0803,-0.0306,0.148
1.7070,0.1682,-0.0245,-0.0963,0.195
1.7150,0.1211,0.0057,-0.2368,0.266
1.7260,0.0416,0.0131,-0.2536,0.257
1.7350,-0.0450,-0.0328,-0.2283,0.235
1.7470,-0.1097,-0.1109,-0.2138,0.265
1.7590,-0.0864,-0.1773,-0.2158,0.292
1.7670,-0.0438,-0.2405,-0.1890,0.309
1.7760,-0.0327,-0.2453,-0.2387,0.344
1.7870,-0.0144,-0.2007,-0.3196,0.378
1.7960,0.0123,-0.0848,-0.2822,0.295
1.8090,0.0236,-0.0261,-0.2341,0.237
1.8160,-0.0048,0.0212,-0.1394,0.141
1.8290,-0.0661,-0.0147,0.0137,0.069
1.8360,-0.1749,-0.0830,-0.0168,0.194
1.8480,-0.1888,-0.1130,-0.1662,0.276
1.8620,-0.0662,-0.0922,-0.1326,0.175
1.8670,-0.0068,-0.0897,0.1184,0.149
1.8790,0.0601,-0.0536,0.3018,0.312
1.8870,0.0990,-0.0139,0.2669,0.285
1.9180,0.0746,0.0836,-0.0674,0.131
1.9200,0.1799,0.1372,-0.1041,0.249
1.9220,0.2041,0.1823,-0.2066,0.343
1.9270,0.2319,0.2212,-0.4364,0.541
1.9350,0.1296,0.1568,0.1189,0.236
1.9470,0.0762,0.1079,0.1916,0.233
1.9560,0.1908,0.1580,0.0507,0.253
1.9660,0.2324,0.1800,0.0213,0.295
1.9750,0.2443,0.1527,-0.2661,0.392
1.9860,0.4034,0.1629,-0.2187,0.487
1.9960,0.4603,0.1396,-0.0357,0.482
2.0100,0.4399,-0.0181,-0.0485,0.443
2.0160,0.3451,-0.0736,0.0930,0.365
2.0270,0.1646,0.0193,0.2102,0.268
2.0350,-0.0006,0.1040,-0.0856,0.135
2.0460,0.0259,0.3307,-0.0167,0.332
2.0610,0.1882,0.3753,-0.0798,0.427
2.0660,0.5268,0.4077,-0.0276,0.667
2.0770,0.6541,0.4691,0.2124,0.832
2.0860,0.7409,0.6639,0.9875,1.402
2.0960,0.5368,0.5899,1.2554,1.487
2.1090,0.0697,0.4359,0.7679,0.886
2.1150,-0.1336,0.1863,-0.3567,0.424
2.1300,-0.0348,-0.2931,-1.6195,1.646
2.1360,-0.0019,-0.5397,-1.7094,1.793
2.1460,-0.5527,-0.6563,-1.1944,1.471
2.1650,-0.5126,-0.5503,-0.5577,0.936
2.1690,-0.2420,-0.3601,0.1743,0.468
2.1820,0.0183,0.0456,0.3376,0.341
2.1860,-0.2042,-0.2303,0.7760,0.835
2.1950,-0.2040,-0.3945,0.6457,0.784
2.2070,-0.6610,-0.5609,0.4011,0.955
2.2150,-0.9962,-0.6684,0.1292,1.207
2.2270,-0.9289,-0.6702,-0.1132,1.151
2.2350,-0.6200,-0.5641,-0.2176,0.866
2.2460,-0.2765,-0.3754,-0.2469,0.528
2.2680,-0.1830,-0.2398,-0.3988,0.500
2.2790,-0.2147,-0.1757,-0.4892,0.562
2.2840,-0.3230,-0.1797,-0.5143,0.633
2.2900,-0.2687,-0.1987,-0.4558,0.565
2.2960,-0.1243,-0.2466,-0.1897,0.335
2.3070,-0.1250,-0.3000,-0.1006,0.340
2.3150,-0.1559,-0.3081,-0.1690,0.384
2.3260,-0.2143,-0.2668,-0.2026,0.398
2.3350,-0.1555,-0.2340,-0.2692,0.389
2.3520,-0.0957,-0.1892,-0.2178,0.304
2.3610,-0.1232,-0.1659,-0.1454,0.253
2.3670,-0.1060,-0.1661,-0.1359,0.239
2.3770,-0.1068,-0.1853,-0.1683,0.272
2.3860,-0.1300,-0.2025,-0.1711,0.295
2.3960,-0.1473,-0.1689,-0.1206,0.255
2.4140,-0.0974,-0.1155,-0.0837,0.173
2.4160,-0.0345,-0.0715,-0.0724,0.107
2.4300,0.0347,-0.0602,-0.0553,0.089
2.4350,0.0754,-0.0271,0.0478,0.093
2.4470,0.0672,0.0404,0.0648,0.102
2.4600,0.0139,0.0506,0.0486,0.071
2.4660,-0.0137,0.0215,-0.0531,0.059
2.4750,-0.0594,-0.0397,-0.1865,0.200
2.4860,-0.0747,-0.0644,-0.2894,0.306
2.4950,-0.0356,-0.0357,-0.3108,0.315
2.5100,0.0366,-0.0250,-0.2846,0.288
2.5150,0.0586,-0.0650,-0.1177,0.147
2.5270,0.0412,-0.0873,0.0204,0.099
2.5350,0.0327,-0.0603,0.1565,0.171
2.5480,-0.0152,-0.0014,0.1368,0.138
2.5580,-0.0451,0.0854,-0.0191,0.098
2.5760,-0.0103,0.1405,-0.1906,0.237
2.5820,0.0156,0.1541,-0.2824,0.322
2.5910,0.0309,0.1045,-0.3386,0.356
2.5990,0.0093,0.0201,-0.2727,0.274
2.6070,0.0258,-0.0551,-0.1354,0.148
2.6150,-0.0046,-0.0942,-0.0372,0.101
2.6280,0.0127,-0.0498,0.0477,0.070
2.6350,0.0458,-0.0052,0.1379,0.145
2.6460,0.0678,0.0125,0.1656,0.179
2.6590,0.0297,0.0047,0.0956,0.100
2.6660,0.0312,-0.0025,0.0253,0.040
2.6760,0.0745,0.0351,0.0324,0.088
2.6860,0.1438,0.0874,0.1202,0.207
2.6960,0.1322,0.0805,0.1404,0.209
2.7090,0.0239,0.0047,-0.0278,0.037
2.7160,-0.0321,-0.0479,-0.1282,0.141
2.7290,-0.0714,-0.0827,-0.1479,0.184
2.7360,-0.0667,-0.0875,-0.0875,0.141
2.7480,-0.0328,-0.0755,-0.0071,0.083
2.7560,-0.0417,-0.1005,-0.0074,0.109
2.7710,-0.0266,-0.1049,-0.0232,0.111
2.7850,0.0296,-0.0920,-0.0507,0.109
2.7890,0.0349,-0.0574,-0.0713,0.098
2.7970,0.0282,-0.0053,-0.1198,0.123
2.8120,0.0128,0.0234,-0.2895,0.291
2.8170,-0.0004,0.0505,-0.4727,0.475
2.8290,-0.0193,0.0350,-0.5217,0.523
2.8360,-0.0036,-0.0130,-0.4540,0.454
2.8500,-0.0410,-0.0673,-0.4296,0.437
2.8660,0.0009,-0.1103,-0.3922,0.407
2.8750,0.0269,-0.1060,-0.3043,0.323
2.8860,-0.0293,-0.0577,-0.2207,0.230
2.8900,0.0057,0.0037,-0.0370,0.038
2.9100,0.0790,0.0745,0.1905,0.219
2.9110,0.0592,0.0667,0.2621,0.277
2.9170,0.0128,0.0164,0.1233,0.125
2.9270,0.0467,-0.0679,-0.0076,0.083
2.9360,0.0953,-0.0719,-0.1293,0.176
2.9470,0.1014,-0.0441,-0.1510,0.187
2.9560,0.0446,-0.0145,-0.2050,0.210
2.9670,0.0057,0.0214,-0.2459,0.247
2.9800,0.0009,0.0225,-0.2465,0.248
2.9870,0.0857,0.0608,0.0398,0.112
2.9980,0.1078,0.0165,0.0995,0.148
3.0120,0.0924,-0.0170,0.0720,0.118
3.0160,0.0447,-0.0147,0.0090,0.048
3.0290,0.0683,-0.0014,-0.0521,0.086
3.0360,0.0634,-0.0065,-0.1387,0.153
3.0480,0.0168,-0.0223,-0.1443,0.147
3.0560,0.0315,-0.0362,-0.1279,0.137
3.0690,0.0398,-0.0325,-0.1090,0.121
3.0830,0.0181,-0.0291,-0.0976,0.103
3.0870,0.0332,0.0042,-0.0531,0.063
3.0960,0.0901,0.0184,0.0487,0.104
3.1120,0.1295,0.0174,0.0583,0.143
3.1170,0.1714,-0.0092,0.0321,0.175
3.1300,0.1484,-0.0036,-0.0032,0.148
3.1360,0.1492,-0.0064,-0.0023,0.149
3.1470,-0.0326,0.0123,-0.0044,0.035
3.1560,-0.0557,0.0352,0.0548,0.086
3.1690,0.0074,0.0407,0.0422,0.059
3.1770,0.0197,0.0235,-0.0370,0.048
3.1860,0.0336,0.0106,-0.0699,0.078
3.1960,0.1068,0.0193,-0.0542,0.121
3.2110,0.1049,0.0301,-0.0775,0.134
3.2160,0.0724,0.0531,-0.1066,0.139
3.2280,0.0627,0.0494,-0.0936,0.123
3.2360,0.0278,0.0121,-0.0927,0.098
3.2470,0.0257,-0.0002,-0.0886,0.092
3.2560,0.1836,0.0585,-0.2190,0.292
3.2680,0.1263,0.0850,-0.3929,0.421
3.2840,-0.1489,0.0313,-0.4424,0.468
3.2890,-0.4462,0.0362,-0.4337,0.623
3.2990,-0.3932,0.0533,-0.4192,0.577
3.3090,-0.2140,0.0173,-0.3991,0.453
3.3170,-0.1622,-0.0946,-0.3192,0.370
3.3310,-0.0499,-0.2277,-0.2158,0.318
3.3360,0.0693,-0.2391,-0.2055,0.323
3.3490,0.1801,-0.3093,-0.2154,0.418
3.3560,0.1693,-0.3314,-0.1486,0.401
3.3670,0.0737,-0.2871,-0.0122,0.297
3.3770,0.0784,-0.2571,0.1329,0.300
3.3870,0.0190,-0.1090,0.2394,0.264
3.3960,0.0000,0.1278,0.3204,0.345
3.4060,-0.0341,0.2079,0.1994,0.290
3.4160,-0.0427,0.1672,0.0061,0.173
3.4290,0.0151,0.0735,-0.1853,0.200
3.4360,0.1117,-0.0610,-0.2832,0.310
3.4480,0.1274,-0.0933,-0.1616,0.226
3.4550,0.0995,-0.0518,0.0018,0.112
3.4690,0.0324,0.0569,0.0279,0.071
3.4800,-0.0441,0.1510,-0.0289,0.160
3.4860,-0.0346,0.1748,-0.1028,0.206
3.4960,-0.0832,0.1352,-0.2282,0.278
3.5070,-0.0420,0.0657,-0.2523,0.264
3.5160,0.0701,-0.0473,-0.2159,0.232
3.5290,0.1382,-0.0936,-0.1455,0.221
3.5350,0.1729,-0.0605,-0.1165,0.217
3.5510,0.1469,0.0115,-0.0625,0.160
3.5560,0.0361,0.0311,0.0153,0.050
3.5660,-0.0457,0.0143,-0.0587,0.076
3.5760,-0.1039,-0.0216,-0.1251,0.164
3.5860,-0.0990,-0.0761,-0.2125,0.247
3.5950,-0.0205,-0.1069,-0.2348,0.259
3.6060,0.0487,-0.0786,-0.2234,0.242
3.6150,0.0866,-0.0451,-0.1295,0.162
3.6310,0.1077,-0.0589,-0.0393,0.129
3.6360,0.0424,-0.0717,-0.0010,0.083
3.6480,-0.0086,-0.0805,0.0541,0.097
3.6560,-0.0788,-0.0987,0.0913,0.156
3.6690,-0.0915,-0.0563,0.0748,0.131
3.6900,-0.1121,-0.0284,0.0397,0.122
3.6930,-0.1685,-0.0283,-0.0739,0.186
3.7000,-0.1789,-0.0213,-0.1715,0.249
3.7110,-0.1074,-0.0165,-0.2459,0.269
3.7150,-0.0195,-0.0253,-0.2592,0.261
3.7270,-0.0300,-0.0441,-0.2284,0.235
3.7350,-0.0734,-0.0306,-0.2260,0.240
3.7460,-0.1362,-0.0063,-0.1840,0.229
3.7550,-0.1564,-0.0369,-0.1445,0.216
3.7710,-0.1188,-0.0625,-0.0780,0.155
3.7770,-0.0306,-0.0912,-0.0293,0.101
3.7860,0.0601,-0.1170,0.0463,0.139
3.7960,0.1168,-0.1012,0.0915,0.180
3.8060,0.1092,-0.0596,0.0527,0.135
3.8160,0.0395,-0.0465,-0.0128,0.062
3.8280,-0.0241,-0.0597,-0.0827,0.105
3.8350,-0.0749,-0.0720,-0.1116,0.152
3.8490,0.0218,-0.0400,-0.0902,0.101
3.8560,0.0879,-0.0679,-0.0843,0.139
3.8680,0.0636,-0.1056,-0.1502,0.194
3.8850,-0.0023,-0.1175,-0.1621,0.200
3.8890,-0.0254,-0.0872,-0.1977,0.218
3.9190,0.0005,-0.0381,-0.2379,0.241
3.9200,0.0268,-0.0260,-0.1514,0.156
3.9200,0.0149,-0.0321,-0.0392,0.053
3.9270,0.0229,-0.0505,0.0032,0.056
3.9360,0.0131,-0.0859,0.0362,0.094
3.9460,0.0474,-0.0932,0.0861,0.135
3.9550,0.0503,-0.0970,0.0909,0.142
3.9670,0.0323,-0.1349,0.1909,0.236
3.9770,0.0442,-0.1397,0.2377,0.279
3.9860,0.0390,-0.1180,0.2625,0.290
3.9970,0.0623,-0.0786,0.1206,0.157
4.0060,0.0755,-0.0204,0.0431,0.089
4.0160,0.0285,0.0927,-0.1423,0.172
4.0300,-0.0050,0.1790,-0.2745,0.328
4.0350,-0.0971,0.1708,-0.4306,0.473
4.0470,-0.2257,0.0843,-0.4878,0.544
4.0550,-0.2216,0.0428,-0.4969,0.546
4.0670,-0.1605,0.0427,-0.4981,0.525
4.0780,-0.0503,-0.0038,-0.4327,0.436
4.0860,-0.0114,-0.0572,-0.3209,0.326
4.0960,0.0128,-0.0557,-0.1900,0.198
4.1060,0.0173,-0.0214,-0.0962,0.100
4.1160,0.0323,0.0031,-0.0290,0.044
4.1300,0.0042,-0.0378,-0.0633,0.074
4.1360,-0.0177,-0.1049,-0.1123,0.155
4.1480,0.0079,-0.1118,-0.0692,0.132
4.1570,0.1024,-0.0901,0.0166,0.137
4.1720,0.2071,-0.0064,0.0286,0.209
4.1850,0.2073,0.0020,0.0782,0.222
4.1890,0.0998,-0.0388,0.0564,0.121
4.1960,0.0022,-0.0842,0.0195,0.086
4.2070,-0.0162,-0.0914,0.0190,0.095
4.2170,-0.0094,-0.1274,0.0609,0.142
4.2320,-0.0196,-0.1578,0.0493,0.167
4.2360,0.0028,-0.1462,0.0211,0.148
4.2480,-0.0176,-0.1119,0.0312,0.118
4.2560,0.0650,-0.0465,0.0677,0.105
4.2720,0.0938,-0.0162,0.0362,0.102
4.2920,0.0910,-0.0139,-0.0442,0.102
4.2970,0.0393,-0.0279,-0.2070,0.213
4.2990,0.0511,-0.0151,-0.2915,0.296
4.3080,0.0855,-0.0038,-0.3724,0.382
4.3210,0.0462,-0.0164,-0.3768,0.380
4.3320,-0.0373,0.0967,-0.3733,0.387
4.3360,-0.0755,0.1905,-0.4626,0.506
4.3480,-0.0990,0.1371,-0.4343,0.466
4.3550,-0.0448,0.0420,-0.2558,0.263
4.3670,0.1201,-0.0520,-0.0994,0.164
4.3800,0.0720,-0.0540,-0.1513,0.176
4.3900,0.0010,-0.0708,-0.1825,0.196
4.3970,-0.0585,-0.1441,-0.0449,0.162
4.4070,-0.0538,-0.1644,0.1787,0.249
4.4160,0.0592,-0.1344,0.2561,0.295
4.4290,0.0290,-0.0290,0.2346,0.238
4.4350,0.0234,-0.0005,0.1493,0.151
4.4470,-0.0442,0.0589,0.0649,0.098
4.4550,-0.0241,0.0695,-0.0162,0.075
4.4670,-0.0000,0.0068,-0.0789,0.079
4.4750,-0.0314,-0.0142,-0.1008,0.107
4.4870,-0.0632,0.0461,-0.2699,0.281
4.5000,-0.0908,0.1135,-0.4654,0.488
4.5060,-0.0111,0.0193,-0.4537,0.454
4.5160,0.1042,-0.0879,-0.2783,0.310
4.5290,0.0476,-0.0756,-0.2071,0.226
4.5350,-0.0434,-0.0284,-0.2737,0.279
4.5520,-0.1038,0.0478,-0.3658,0.383
4.5560,-0.0621,0.0357,-0.2497,0.260
4.5710,-0.0034,0.0009,-0.0778,0.078
4.5770,0.1017,-0.0278,-0.0371,0.112
4.5870,0.0973,-0.0663,0.0152,0.119
4.5970,-0.0136,-0.0499,0.1120,0.123
4.6060,-0.0605,-0.0329,0.2197,0.230
4.6160,0.1110,-0.0760,0.2622,0.295
4.6280,0.2775,-0.2160,0.2323,0.421
4.6360,0.2052,0.0152,0.0402,0.210
4.6540,0.0814,0.1549,-0.3232,0.368
4.6570,-0.1708,0.1572,-0.5693,0.615
4.6710,-0.1454,0.1680,-0.4304,0.484
4.6770,-0.0006,0.1141,-0.3006,0.322
4.6880,0.0551,0.0895,-0.2845,0.303
4.6990,0.0086,0.0228,-0.1346,0.137
4.7060,-0.0517,-0.0222,0.0848,0.102
4.7150,-0.0126,0.0071,0.2005,0.201
4.7290,-0.0370,-0.0136,0.0866,0.095
4.7350,-0.0502,-0.0571,0.0288,0.081
4.7480,-0.1006,-0.0460,0.0163,0.112
4.7550,-0.1128,0.0023,-0.1163,0.162
4.7660,-0.1289,0.0280,-0.2973,0.325
4.7760,-0.1667,0.0620,-0.4372,0.472
4.7880,-0.1221,0.0280,-0.4372,0.455
4.8040,0.0001,0.0395,-0.3711,0.373
4.8070,0.1890,0.1250,-0.1399,0.266
4.8160,0.0301,0.0669,0.0423,0.085
4.8320,0.0178,-0.0000,0.2954,0.296
4.8370,0.1478,0.0120,0.3554,0.385
4.8480,0.1498,-0.0277,0.1187,0.193
4.8560,0.1637,0.0017,-0.0233,0.165
4.8670,0.1527,0.0160,0.0403,0.159
4.8760,0.1696,-0.0298,-0.0644,0.184
4.8890,0.0690,-0.0801,-0.0959,0.143
4.9120,-0.0039,-0.1296,-0.1404,0.191
4.9120,-0.0583,-0.1764,-0.1166,0.219
4.9160,0.0207,-0.1441,-0.0162,0.146
4.9290,0.1108,-0.0982,-0.0939,0.175
4.9350,0.0400,-0.0755,-0.1220,0.149
4.9470,0.1251,-0.0372,-0.1505,0.199
4.9560,0.2381,0.0078,-0.1604,0.287
4.9680,0.0914,-0.0259,-0.2718,0.288
4.9750,-0.1491,-0.1642,-0.4443,0.497
4.9860,-0.1879,-0.2268,-0.3829,0.483
4.9980,-0.0815,-0.2065,-0.2484,0.333
5.0070,0.1098,-0.1000,-0.2022,0.251
5.0160,0.2251,0.0038,-0.0762,0.238
5.0290,0.1231,0.0432,0.0115,0.131
5.0360,-0.0348,0.0021,0.0429,0.055
5.0460,-0.0210,-0.0503,0.0614,0.082
5.0560,0.1005,-0.1118,0.0046,0.150
5.0690,0.1458,-0.1463,0.0369,0.210
5.0770,0.1000,-0.1100,0.0480,0.156
5.0870,0.0190,-0.1085,-0.0768,0.134
5.0980,-0.0374,-0.1328,0.0219,0.140
5.1070,-0.1242,-0.1884,0.0996,0.247
5.1190,-0.0460,-0.0180,-0.0067,0.050
5.1330,0.0404,0.0917,-0.1486,0.179
5.1360,-0.0301,0.2402,-0.2971,0.383
5.1490,-0.0970,0.2147,-0.4637,0.520
5.1550,-0.0988,-0.1640,-0.3822,0.427
5.1660,-0.0133,-0.1672,-0.2028,0.263
5.1750,0.0108,-0.1512,-0.0237,0.153
5.1880,0.0354,-0.1331,0.0603,0.150
5.1960,0.0340,-0.0517,0.1778,0.188
5.2080,0.0050,0.0176,0.1500,0.151
5.2160,-0.0346,0.0218,0.1114,0.119
5.2260,-0.0890,0.0137,0.1349,0.162
5.2360,-0.0849,0.0078,0.1542,0.176
5.2510,0.0458,-0.0072,0.0915,0.103
5.2550,0.1120,-0.0553,-0.0426,0.132
5.2700,0.0872,-0.1184,-0.1284,0.195
5.2770,0.0555,-0.0997,-0.1264,0.170
5.2890,-0.0217,-0.0687,-0.1160,0.137
5.3030,-0.1012,-0.0207,-0.1199,0.158
5.3070,-0.1190,-0.0022,-0.1415,0.185
5.3170,-0.1349,-0.0218,-0.2300,0.267
5.3270,-0.1236,-0.0646,-0.3124,0.342
5.3360,-0.0511,-0.0792,-0.2767,0.292
5.3480,0.0203,-0.0741,-0.2260,0.239
5.3550,0.0735,-0.0871,-0.1510,0.189
5.3670,0.0499,-0.1510,-0.1376,0.210
5.3750,0.0119,-0.2001,-0.0827,0.217
5.3860,0.0237,-0.2157,-0.0077,0.217
5.3980,0.0224,-0.1216,0.0647,0.140
5.4060,0.0246,-0.0123,0.0870,0.091
5.4160,0.0021,0.0189,0.0905,0.092
5.4280,-0.0598,-0.0199,-0.0073,0.063
5.4360,-0.0855,-0.0462,-0.0207,0.099
5.4470,-0.0383,-0.0563,-0.0358,0.077
5.4550,0.0154,-0.0493,-0.0989,0.112
5.4670,0.0074,-0.0747,-0.2563,0.267
5.4760,-0.0285,-0.0587,-0.3668,0.373
5.4900,-0.0308,-0.0130,-0.3028,0.305
5.5020,0.0221,0.0568,-0.2540,0.261
5.5080,0.0456,0.0731,-0.1978,0.216
5.5180,0.0372,0.0455,-0.0706,0.092
5.5270,-0.0158,-0.0381,0.0666,0.078
5.5350,-0.0477,-0.0997,0.0645,0.128
5.5480,-0.0362,-0.1043,0.0733,0.133
5.5560,-0.0282,-0.0891,0.0839,0.126
5.5670,0.0163,-0.0975,0.0256,0.102
5.5750,0.0295,-0.0804,-0.0057,0.086
5.5890,0.0685,-0.0306,0.0713,0.104
5.5970,0.0917,-0.0145,0.0244,0.096
5.6090,0.0043,-0.0072,-0.0679,0.068
5.6180,-0.0921,-0.0294,-0.0836,0.128
5.6260,-0.0823,-0.0056,-0.0911,0.123
5.6360,-0.0349,-0.0309,-0.1573,0.164
5.6490,-0.0123,-0.0510,-0.2812,0.286
5.6550,-0.0035,-0.0693,-0.2543,0.264
5.6660,-0.0131,-0.0651,-0.1883,0.200
5.6760,-0.0124,-0.0438,-0.1418,0.149
5.6860,0.0139,-0.0314,-0.1016,0.107
5.6980,-0.0105,0.0059,-0.1260,0.127
5.7060,0.0305,0.0309,-0.1300,0.137
5.7220,-0.0033,0.0303,-0.1135,0.117
5.7270,-0.0150,0.0062,-0.1183,0.119
5.7360,0.0264,-0.0025,-0.1087,0.112
5.7520,0.1018,0.0185,-0.0846,0.134
5.7560,0.1223,0.0107,-0.0199,0.124
5.7680,0.0582,-0.0283,0.0187,0.067
5.7820,0.0242,-0.0739,0.0335,0.085
5.7890,0.0250,-0.0749,0.0222,0.082
5.8050,0.0004,-0.0436,0.0233,0.049
5.8070,-0.0193,-0.0374,-0.0555,0.070
5.8170,-0.0301,-0.0045,-0.0993,0.104
5.8260,0.0473,0.0391,-0.1705,0.181
5.8380,0.0491,0.0345,-0.1690,0.179
5.8480,-0.0184,-0.0461,-0.2243,0.230
5.8550,-0.0476,-0.0796,-0.2026,0.223
5.8660,-0.0562,-0.0370,-0.0906,0.113
5.8750,0.0267,-0.0097,0.0007,0.028
5.8880,0.0610,0.0051,-0.0689,0.092
5.8970,0.0214,0.0094,-0.1658,0.167
5.9060,-0.0049,-0.0115,-0.2084,0.209
5.9160,-0.0079,0.0039,-0.1765,0.177
5.9260,0.0240,0.0186,-0.1541,0.157
5.9350,0.0595,0.0224,-0.1555,0.168
5.9490,0.0605,0.0202,-0.1641,0.176
5.9550,0.0707,0.0005,-0.1357,0.153
5.9710,0.0588,-0.0135,-0.0489,0.078
5.9760,0.0509,-0.0299,-0.0067,0.059
5.9890,0.0740,-0.0495,0.0437,0.099
6.0180,0.0645,-0.0679,0.0498,0.106
6.0200,0.0624,-0.0788,0.0024,0.101
6.0210,0.0575,-0.0418,-0.0268,0.076
6.0260,0.0512,0.0166,-0.0207,0.058
6.0380,0.0792,0.0538,-0.0587,0.112
6.0510,0.0411,0.0497,-0.1695,0.181
6.0560,-0.0035,0.0030,-0.2693,0.269
6.0670,0.0088,-0.0211,-0.2386,0.240
6.0750,0.0482,-0.0278,-0.1527,0.163
6.0870,0.0400,-0.0200,-0.1251,0.133
6.1040,0.0521,-0.0435,-0.0993,0.120
6.1080,0.0727,-0.0380,-0.0512,0.097
6.1220,0.0408,-0.0402,-0.0259,0.063
6.1260,0.0041,-0.0406,0.0199,0.045
6.1370,-0.0927,-0.0179,0.0999,0.138
6.1500,-0.1015,-0.0127,0.0756,0.127
6.1550,-0.0678,-0.0288,-0.0747,0.105
6.1690,-0.0456,-0.0472,-0.3256,0.332
6.1750,-0.0979,-0.0110,-0.4349,0.446
6.1870,-0.0799,0.0406,-0.3937,0.404
6.2080,-0.0294,0.0849,-0.2291,0.246
6.2100,0.0871,0.0751,0.0262,0.118
6.2180,0.1766,0.0275,0.1163,0.213
6.2260,0.1461,-0.0166,0.1241,0.192
6.2360,0.0726,-0.0733,0.2240,0.247
6.2480,0.1050,-0.0869,0.2273,0.265
6.2550,0.1540,-0.0255,0.1465,0.214
6.2670,0.1308,0.0170,0.1063,0.169
6.2750,0.1144,0.0362,0.0597,0.134
6.2870,0.1005,0.0427,0.0306,0.113
6.3030,0.0447,-0.0059,-0.0424,0.062
6.3080,0.0427,-0.0382,-0.1164,0.130
6.3170,0.0877,-0.0360,-0.0873,0.129
6.3270,0.0902,-0.0234,-0.0940,0.132
6.3360,0.0316,-0.0486,-0.1512,0.162
6.3530,-0.0333,-0.0779,-0.1331,0.158
6.3570,-0.0763,-0.0787,-0.0794,0.135
6.3700,-0.1076,-0.0444,-0.0692,0.135
6.3760,-0.1132,-0.0544,-0.0486,0.135
6.3880,-0.1059,-0.0644,-0.0304,0.128
6.4090,-0.0569,-0.0719,-0.0418,0.101
6.4120,-0.0076,-0.0739,-0.1079,0.131
6.4330,-0.0185,-0.0287,-0.1869,0.190
6.4360,-0.0238,-0.0108,-0.2410,0.242
6.4370,-0.0439,-0.0521,-0.2257,0.236
6.4510,-0.0342,-0.0575,-0.2347,0.244
6.4560,-0.0084,-0.0705,-0.2487,0.259
6.4670,-0.0530,-0.0820,-0.1970,0.220
6.4760,-0.0336,-0.0988,-0.1647,0.195
6.4880,0.0104,-0.0729,-0.0835,0.111
6.5070,-0.0434,-0.0427,0.0705,0.093
6.5100,-0.0705,-0.0499,0.1081,0.138
6.5160,-0.0360,-0.0377,0.0175,0.055
6.5260,-0.0478,0.0094,-0.0262,0.055
6.5360,-0.0356,-0.0070,-0.0407,0.055
6.5480,-0.0228,-0.0476,-0.0097,0.054
6.5560,0.0174,-0.0713,0.0106,0.074
6.5670,0.0464,-0.0789,-0.0072,0.092
6.5760,0.0516,-0.0311,-0.0739,0.095
6.5920,0.0563,0.0262,-0.1784,0.189
6.6210,0.0423,0.0597,-0.2420,0.253
6.6230,0.0245,0.0407,-0.2302,0.235
6.6260,0.0174,-0.0201,-0.1960,0.198
6.6280,0.0262,-0.0593,-0.1408,0.155
6.6380,-0.0078,-0.0699,-0.0774,0.105
6.6510,-0.0098,-0.0677,-0.0645,0.094
6.6560,-0.0244,-0.0584,-0.0589,0.086
6.6670,-0.0252,-0.0239,-0.0377,0.051
6.6760,-0.0230,-0.0168,-0.0129,0.031
6.6900,0.0098,-0.0241,-0.0491,0.056
6.6990,0.0282,-0.0386,-0.0921,0.104
6.7150,-0.0245,-0.0394,-0.1338,0.142
6.7190,-0.0773,-0.0439,-0.1204,0.150
6.7270,-0.0991,-0.0352,-0.0926,0.140
6.7370,-0.0229,-0.0058,-0.0912,0.094
6.7500,0.0612,-0.0157,-0.0900,0.110
6.7560,0.0666,-0.0316,-0.0612,0.096
6.7690,0.0581,-0.0474,-0.0983,0.124
6.7760,0.0459,0.0029,-0.1343,0.142
6.7880,0.0085,0.0153,-0.1619,0.163
6.8140,-0.0312,-0.0224,-0.1514,0.156
6.8190,-0.0471,-0.0677,-0.0668,0.106
6.8210,0.0070,-0.0765,0.0295,0.082
6.8270,0.0293,-0.0600,0.0420,0.079
6.8370,0.0182,-0.0147,-0.0170,0.029
6.8510,-0.0085,-0.0094,-0.1509,0.151
6.8560,-0.0822,-0.0520,-0.2433,0.262
6.8710,-0.0644,-0.0843,-0.2784,0.298
6.8770,-0.0008,-0.0745,-0.2135,0.226
6.8880,0.1006,-0.0320,-0.1013,0.146
6.9080,0.1573,-0.0300,-0.0350,0.164
6.9110,0.1234,-0.0390,-0.0444,0.137
6.9240,0.0869,-0.0391,0.0321,0.101
6.9260,0.1097,-0.0234,0.0380,0.118
6.9450,0.1073,-0.0279,0.0415,0.118
6.9470,0.0687,-0.0341,0.0548,0.094
6.9560,0.0551,-0.0579,0.0002,0.080
6.9670,0.0578,-0.0149,-0.0611,0.085
6.9760,0.0265,0.0175,-0.1673,0.170
6.9900,0.0045,0.0232,-0.1845,0.186
7.0000,0.0262,0.0008,-0.0974,0.101
7.0150,0.0561,-0.0273,-0.0255,0.067
7.0190,0.0606,-0.0477,0.0579,0.096
7.0270,0.0699,-0.0325,0.0883,0.117
7.0450,0.0597,-0.0032,0.0050,0.060
7.0490,0.0032,-0.0023,-0.0564,0.057
7.0570,-0.0637,-0.0245,-0.1237,0.141
7.0720,-0.0938,-0.0261,-0.1215,0.156
7.0760,-0.0749,-0.0345,-0.1171,0.143
7.0880,-0.0607,-0.0385,-0.1412,0.158
7.0970,-0.0369,-0.0658,-0.1581,0.175
7.1090,0.0123,-0.0273,-0.1578,0.161
7.1340,0.0609,-0.0053,-0.1669,0.178
7.1390,0.0323,0.0161,-0.2225,0.225
7.1410,-0.0060,-0.0169,-0.2149,0.216
7.1540,-0.0588,-0.0468,-0.1727,0.188
7.1580,-0.0573,-0.0781,-0.1083,0.145
7.1710,-0.0066,-0.0558,-0.0643,0.085
7.1760,-0.0026,-0.0498,-0.1230,0.133
7.1880,-0.0319,-0.0342,-0.1251,0.134
7.1960,-0.0810,-0.0072,-0.1522,0.173
7.2080,-0.0599,-0.0264,-0.1507,0.164
7.2320,-0.0130,-0.0599,-0.1532,0.165
7.2340,0.0414,-0.0729,-0.0891,0.122
7.2370,0.0365,-0.0747,-0.0876,0.121
7.2500,0.0074,-0.0792,-0.2289,0.242
7.2560,-0.0567,-0.0932,-0.3067,0.326
7.2680,-0.0783,-0.0505,-0.3185,0.332
7.2760,0.0169,-0.0240,-0.1840,0.186
7.2910,0.1164,0.0639,-0.3143,0.341
7.2960,0.0813,0.0438,-0.2342,0.252
7.3080,0.0874,0.0354,-0.2226,0.242
7.3200,0.0780,0.0745,-0.1876,0.216
7.3270,0.2119,0.0729,-0.0317,0.226
7.3380,0.2392,0.1020,0.2104,0.335
7.3520,0.2935,0.1167,0.2841,0.425
7.3570,0.3581,0.1516,0.2018,0.438
7.3690,0.3331,0.1776,0.1171,0.395
7.3760,0.0022,0.0802,0.1201,0.144
7.3880,-0.0862,0.0997,0.2933,0.321
7.3980,-0.0862,0.1145,1.0337,1.044
7.4120,0.1289,0.1761,1.6255,1.640
7.4400,0.4732,0.1470,1.5461,1.624
7.4430,-0.2170,-0.0384,1.1013,1.123
7.4450,-0.3742,-0.1700,0.4075,0.579
7.4490,-0.5329,-0.1732,-0.3530,0.662
7.4570,-0.7702,-0.2481,-0.7856,1.128
7.4710,-1.0049,-0.3329,-1.0921,1.521
7.4760,-1.1412,-0.2671,-1.2584,1.720
7.4890,-1.4887,-0.1935,-1.2136,1.930
7.4970,-3.0156,-0.4305,-0.6031,3.105
7.5090,-1.9235,-0.4381,-0.5257,2.042
7.5360,-0.7540,-0.4046,-0.2347,0.887
7.5400,-0.1091,-0.3081,0.1473,0.358
7.5410,0.0477,-0.2057,0.4661,0.512
7.5470,-0.1522,-0.1363,0.5803,0.615
7.5590,-0.5276,-0.0928,0.4914,0.727
7.5720,-0.7516,-0.1138,0.2375,0.796
7.5760,-0.7982,-0.1460,-0.0601,0.814
7.5870,-0.7205,-0.1575,-0.3430,0.813
7.5960,-0.5788,-0.1638,-0.7738,0.980
7.6080,-0.4434,-0.0887,-1.1617,1.247
7.6290,-0.2077,0.0565,-1.7051,1.719
7.6350,-0.0227,0.2058,-2.2214,2.231
7.6370,0.3617,0.3309,-2.8387,2.881
7.6480,1.0199,-0.2627,-3.8838,4.024
7.6560,1.6097,-0.9391,-4.5087,4.879
7.6680,1.6387,-0.6200,-3.7724,4.159
7.6760,1.4179,0.7694,-3.2434,3.622
7.6890,-0.4936,1.9480,-3.0054,3.615
7.6960,-1.4942,1.3117,-2.5484,3.232
7.7100,-2.0816,0.2203,-0.9442,2.296
7.7180,-0.7294,-0.7236,-1.0999,1.505
7.7260,0.2118,-0.9423,-1.1295,1.486
7.7370,-1.0682,-1.2384,-0.1350,1.641
7.7460,-1.5184,-1.2974,0.7170,2.122
7.7560,-1.1882,-1.2227,1.0638,2.010
7.7710,-0.4446,-0.9816,0.9953,1.467
7.7750,0.3833,-0.7015,0.9916,1.274
7.7870,0.8614,-0.4249,0.7184,1.199
7.7950,1.2094,-0.3922,0.3147,1.310
7.8070,1.1608,-0.5853,0.0895,1.303
7.8220,0.7825,-0.8217,0.3236,1.180
7.8260,0.1544,-1.0420,1.0664,1.499
7.8360,-0.0301,-0.0563,2.2314,2.232
7.8460,-0.3713,-0.0213,3.8628,3.881
7.8560,0.1958,0.2369,3.5386,3.552
7.8700,0.8330,0.0664,2.2143,2.367
7.8760,1.6427,-0.3757,0.9350,1.927
7.8880,2.1157,-0.6003,-0.5389,2.264
7.9060,1.6834,-0.4046,-0.9839,1.991
7.9110,1.0255,-0.5993,-1.0931,1.614
7.9220,0.9145,-0.8677,-2.0600,2.415
7.9270,0.9640,-0.9436,-2.9326,3.228
7.9430,0.7182,-0.9325,-3.2451,3.452
7.9470,0.8218,-0.8195,-2.4735,2.732
7.9560,0.8656,-0.6924,-1.5171,1.879
7.9670,0.7653,-0.5925,-0.8836,1.311
7.9760,0.6670,-0.4047,0.0210,0.780
7.9930,0.0765,-0.2869,0.9863,1.030
7.9960,-1.0385,-0.2266,1.7617,2.058
8.0170,-1.6470,0.0049,1.8228,2.457
8.0210,-1.8908,0.3844,0.9854,2.167
8.0270,-1.7496,0.7277,0.5244,1.966
8.0380,-1.7819,0.9937,0.3675,2.073
8.0470,-1.9704,1.1044,-0.2786,2.276
8.0570,-1.8093,0.9608,-1.6701,2.643
8.0710,-1.5562,0.8725,-1.9521,2.645
8.0760,-1.5580,0.6920,-1.1712,2.068
8.0890,-1.7618,0.3693,-0.6130,1.902
8.0960,-1.8389,-0.0587,-0.5635,1.924
8.1090,-1.6506,-0.1997,-0.9820,1.931
8.1250,-0.9035,0.0919,-1.6348,1.870
8.1280,-0.6611,0.1965,-2.7077,2.794
8.1360,-0.4926,0.2934,-3.9031,3.945
8.1460,-0.1870,0.2330,-4.1127,4.124
8.1560,0.0052,0.1115,-4.0542,4.056
8.1700,-0.5631,-0.1789,-4.8953,4.931
8.1760,-0.6396,-0.2898,-4.8925,4.943
8.1960,0.3221,-0.2793,-4.0933,4.115
8.2050,0.1924,-0.3424,-3.6513,3.672
8.2100,0.6738,-0.4920,-2.4890,2.625
8.2180,1.0212,-0.7018,-1.2146,1.735
8.2290,0.5465,-0.9094,-0.0166,1.061
8.2400,0.1633,-0.8296,0.4903,0.977
8.2470,0.1244,-0.7225,0.7487,1.048
8.2560,0.2088,-0.7205,0.4248,0.862
8.2710,0.2317,-0.9332,0.8559,1.287
8.2760,0.5990,-1.1151,0.9875,1.605
8.2900,0.9945,-1.1044,1.0178,1.801
8.2960,1.0215,-0.9976,1.1504,1.834
8.3080,1.2987,-0.8343,0.9642,1.820
8.3200,1.3424,-0.8262,0.7299,1.737
8.3260,0.9003,-1.0586,0.2725,1.416
8.3360,0.4183,-1.2740,-0.1092,1.345
8.3470,0.2165,-1.3580,-0.2089,1.391
8.3560,0.2504,-1.3804,0.0840,1.405
8.3720,0.4593,-1.4327,0.5384,1.598
8.3760,0.4871,-1.4328,0.7864,1.705
8.3910,0.5641,-1.2631,0.3945,1.439
8.3960,0.5724,-1.1249,-0.1185,1.268
8.4090,0.4240,-1.0654,-0.8148,1.407
8.4340,0.3065,-1.0957,-1.4631,1.853
8.4380,0.2737,-1.1966,-1.7860,2.167
8.4410,0.3284,-1.2924,-1.6304,2.106
8.4470,0.3667,-1.4497,-1.0146,1.807
8.4570,0.2968,-1.5809,-0.2128,1.623
8.4800,-0.0395,-1.5209,0.4400,1.584
8.4830,-0.2345,-1.1802,0.6012,1.345
8.4910,-0.0114,-1.0894,0.2102,1.109
8.4960,-0.4407,-1.3007,0.0436,1.374
8.5070,-0.9071,-1.2585,0.1975,1.564
8.5150,-0.8030,-1.0685,0.3049,1.371
8.5270,-0.6773,-1.0105,0.4864,1.310
8.5360,-0.3920,-0.9786,0.7126,1.272
8.5470,-0.1705,-0.7478,0.5390,0.937
8.5610,-0.3651,-0.5109,-0.2878,0.691
8.5680,-0.8819,-0.4925,-0.8382,1.313
8.5760,-1.8798,-0.7317,-0.8528,2.190
8.5900,-2.6634,-0.9211,-0.5185,2.865
8.5960,-2.9854,-0.9663,0.1023,3.140
8.6070,-2.8753,-0.9097,0.5695,3.069
8.6160,-2.7001,-0.7444,0.8017,2.913
8.6270,-2.6032,-0.5231,0.4788,2.698
8.6370,-2.5414,-0.3223,-0.4102,2.594
8.6470,-2.6736,-0.1235,-1.1674,2.920
8.6570,-2.7651,-0.0529,-1.7271,3.261
8.6700,-2.7793,-0.0162,-1.8191,3.322
8.6790,-2.6263,-0.0455,-1.6070,3.079
8.6930,-2.3449,-0.0198,-1.2639,2.664
8.6980,-1.9500,0.0355,-0.5210,2.019
8.7260,-1.5131,0.0812,-0.1349,1.521
8.7290,0.6260,-0.8008,-0.2576,1.049
8.7320,-0.0663,-0.7879,-0.0524,0.792
8.7400,-1.5637,0.0811,1.2464,2.001
8.7480,-1.9698,0.5842,1.6491,2.635
8.7570,-2.2086,0.4340,1.3745,2.637
8.7720,-1.6622,-0.0464,1.3123,2.118
8.7760,-0.5850,-0.4475,1.0390,1.274
8.7880,-0.5334,-0.5531,0.3900,0.862
8.7960,-0.1485,-0.1518,-0.1031,0.236
8.8120,0.7828,0.2877,-1.0397,1.333
8.8380,0.5105,0.2525,-2.1630,2.237
8.8420,-0.1105,0.0562,-2.7138,2.717
8.8440,-0.1715,0.1870,-2.3950,2.408
8.8470,0.0466,0.4829,-2.0769,2.133
8.8570,-0.1233,0.6714,-2.0948,2.203
8.8720,-0.4444,0.7327,-2.0238,2.198
8.8760,-0.6047,0.5153,-1.8856,2.046
8.8890,-0.2659,0.6381,-0.9383,1.165
8.9010,0.0184,0.8032,-0.4744,0.933
8.9070,-0.7195,0.5804,-1.0410,1.392
8.9160,-1.1617,0.5125,-0.9128,1.564
8.9320,-1.3906,0.5740,-0.5874,1.615
8.9360,-1.3235,0.6408,-0.6544,1.610
8.9470,-1.1899,0.6196,-0.8058,1.565
8.9560,-1.2218,0.6595,-1.0039,1.713
8.9700,-1.0633,0.7415,-1.3242,1.853
8.9750,-0.8931,0.7721,-1.5932,1.983
8.9930,-1.0767,0.5953,-1.4100,1.871
8.9970,-1.4417,0.3667,-1.0230,1.805
9.0250,-1.7139,0.2075,-0.4450,1.783
9.0290,-1.7148,0.2100,-0.4194,1.778
9.0300,-1.6124,0.2454,-0.3198,1.662
9.0370,-0.8312,0.4202,-1.1235,1.459
9.0470,-0.3673,0.3880,-1.8814,1.956
9.0570,-0.1415,0.2415,-2.6687,2.683
9.0720,-0.0813,0.3087,-1.8894,1.916
9.0760,-0.5568,-0.0005,-0.3379,0.651
9.0890,-0.8009,-0.1848,0.4547,0.939
9.0960,-0.6077,-0.0398,0.6952,0.924
9.1090,-0.6411,-0.0665,0.3767,0.747
9.1170,-0.3962,-0.2803,-0.2083,0.528
9.1360,-0.0541,-0.3674,-0.9245,0.996
9.1390,0.2004,-0.5311,-1.1938,1.322
9.1470,0.3332,-0.6372,-1.4373,1.607
9.1570,0.2077,-0.6750,-1.6184,1.766
9.1730,0.4684,-0.5892,-1.2460,1.456
9.1770,0.6425,-0.6979,-0.8128,1.249
9.1930,0.9206,-0.7991,-0.4253,1.291
9.1980,0.9639,-1.0157,0.3179,1.436
9.2110,0.9181,-1.2024,0.6165,1.634
9.2160,0.9274,-1.2335,0.6810,1.687
9.2390,0.6173,-1.2061,0.7180,1.533
9.2420,-0.2407,-0.9989,-0.3139,1.074
9.2460,-1.5074,-0.8383,-0.4941,1.794
9.2560,-2.3723,-0.5300,0.0827,2.432
9.2680,-2.0755,-0.4644,-0.0134,2.127
9.2760,-1.6877,-0.6726,-1.3903,2.288
9.2940,-1.1940,-0.6463,-0.8592,1.607
9.2990,-0.1859,-0.3763,0.3419,0.541
9.3270,-0.0363,-0.1705,0.4705,0.502
9.3310,0.0589,-0.2936,0.2891,0.416
9.3340,0.5281,-0.2980,-0.0133,0.606
9.3370,0.8325,-0.2372,0.2537,0.902
9.3490,1.0898,-0.5802,0.4521,1.315
9.3570,1.0486,-0.7600,0.2642,1.322
9.3670,1.3135,-0.8413,0.4562,1.625
9.3770,1.4452,-0.8530,0.3551,1.715
9.3980,1.7155,-0.7724,0.0678,1.883
9.4020,2.2703,-0.5259,0.0063,2.330
9.4250,1.7841,-0.6379,0.0064,1.895
9.4290,1.5383,-0.4984,0.0187,1.617
9.4300,0.5270,-0.5638,-0.2894,0.824
9.4390,-0.5462,-0.6357,-0.5995,1.031
9.4480,-0.8900,-0.5658,-0.3713,1.118
9.4600,-0.5708,-0.4209,-0.1452,0.724
9.4670,-0.3764,-0.3115,0.0621,0.493
9.4760,-0.2070,-0.2708,0.0987,0.355
9.4940,0.1075,-0.1455,0.0677,0.193
9.4970,0.3189,-0.0377,-0.0212,0.322
9.5240,0.0977,-0.2095,-0.1602,0.281
9.5240,-1.1369,-0.5280,-0.0409,1.254
9.5270,-2.1891,-0.3031,-1.0578,2.450
9.5400,-2.4415,-0.0141,-1.1376,2.694
9.5490,-1.4381,1.1318,-0.6286,1.935
9.5630,0.2059,1.5979,-0.0851,1.613
9.5730,1.1059,1.6262,-0.0498,1.967
9.5780,1.0086,1.1248,-0.0723,1.513
9.5900,1.2886,0.5502,-0.2221,1.419
9.5960,1.3956,0.2334,-0.5084,1.504
9.6100,1.2527,0.1686,-0.5156,1.365
9.6160,0.3285,0.3166,-0.4296,0.627
9.6350,0.0445,0.4802,-0.5981,0.768
9.6350,-0.4463,0.4784,1.4180,1.562
9.6470,-0.6068,0.6348,1.5459,1.778
9.6560,-0.3500,0.4956,0.5250,0.802
9.6710,0.3015,0.0015,0.0353,0.304
9.6760,1.0945,0.0512,-0.1826,1.111
9.6900,1.5868,0.0666,0.2108,1.602
9.6960,2.0123,-0.0602,0.5231,2.080
9.7110,1.8441,-0.5129,0.7221,2.046
9.7160,1.2790,-0.4186,1.2256,1.820
9.7340,0.9919,-0.5787,0.7175,1.354
9.7380,0.8436,-0.9052,-0.0503,1.238
9.7470,0.4218,-1.3610,-0.7025,1.589
9.7560,0.1952,-1.8695,-0.7679,2.030
9.7670,0.4076,-1.6711,-0.1503,1.727
9.7760,0.8771,-1.1884,0.5148,1.564
9.7920,0.6106,-1.1768,0.6231,1.465
9.7960,0.1965,-1.2495,0.5722,1.388
9.8130,-1.0078,-1.0474,0.7255,1.625
9.8150,-2.1322,-1.4332,-1.1538,2.816
9.8270,-0.8728,-1.4568,-1.7531,2.441
9.8370,0.3471,-0.0225,-0.5228,0.628
9.8470,0.3868,0.3641,1.0941,1.216
9.8560,0.1214,0.2495,0.6780,0.733
9.8670,-0.1908,0.2403,0.0261,0.308
9.8770,0.3167,1.1387,0.0940,1.186
9.8970,-1.2243,0.6039,-2.1005,2.505
9.9380,-1.7365,0.1041,-1.5412,2.324
9.9390,-1.3349,0.0576,-1.1858,1.786
9.9390,-1.9346,0.8644,-0.5012,2.177
9.9400,-2.4993,0.8128,-0.1714,2.634
9.9400,-1.8260,0.0982,-0.8633,2.022
9.9470,-0.9197,0.3427,0.3868,1.055
9.9560,-0.4120,1.3049,1.3420,1.917
9.9670,-0.3641,1.2163,0.4684,1.353
9.9760,-0.6473,0.5835,0.2592,0.909
9.9900,-0.9330,0.4889,1.6098,1.924
9.9960,0.0227,0.4218,1.4556,1.516
10.0180,0.9263,0.6744,0.6313,1.308
10.0220,1.8011,0.1716,-1.2291,2.187
10.0270,1.9439,0.2901,-0.2742,1.984
10.0400,1.9451,0.0563,0.7786,2.096
10.0480,2.1041,-0.1540,0.4652,2.160
10.0570,2.5634,-0.1899,-0.5484,2.628
10.0680,2.8080,-0.0770,-0.6838,2.891
10.0800,2.7339,-0.1945,0.1200,2.743
10.0990,2.9049,-0.6992,0.2293,2.997
10.1020,2.4002,-0.8455,-0.1352,2.548
10.1290,1.5748,-1.2111,-0.3867,2.024
10.1320,1.0849,-1.2999,-0.7206,1.840
10.1330,0.8021,-0.8677,-0.9607,1.523
10.1420,0.9927,-0.1567,-1.2030,1.568
10.1490,0.7879,0.6094,-1.0605,1.455
10.1590,0.9779,2.3378,-0.6814,2.624
10.1670,1.6765,2.1315,0.2431,2.723
10.1770,2.4930,1.3692,0.2497,2.855
10.1980,2.6836,-0.1425,1.2673,2.971
10.2020,2.5960,-1.7998,0.0231,3.159
10.2360,2.3570,-2.9506,-0.3232,3.790
10.2400,1.6879,-3.4673,0.4601,3.884
10.2440,0.9301,-3.2105,1.1891,3.548
10.2470,0.2175,-2.6707,1.3680,3.009
10.2510,-0.2492,-2.2250,0.6789,2.340
10.2570,-0.3380,-1.9743,0.2793,2.022
10.2670,0.0994,-1.7429,-0.2402,1.762
10.2770,0.4279,-2.0380,-0.5107,2.144
10.2940,0.1706,-2.5414,-0.5179,2.599
10.2980,-0.4356,-2.9337,-0.2815,2.979
10.3240,-1.1406,-3.1731,-0.2979,3.385
10.3250,-1.1763,-3.0128,-0.1782,3.239
10.3280,-0.7702,-2.5931,-0.1170,2.708
10.3360,0.1643,-1.6492,0.0127,1.657
10.3480,0.9236,-0.5105,0.4530,1.148
10.3590,1.6995,0.4658,0.8259,1.946
10.3680,2.0240,0.8969,0.8238,2.362
10.3770,2.1279,1.1130,0.3118,2.422
10.3980,-1.1185,2.7613,-0.4728,3.016
10.4020,-0.4373,3.4631,-0.1499,3.494
10.4090,0.3268,3.3905,0.1324,3.409
10.4160,2.3802,3.2476,-1.3911,4.260
10.4300,4.4745,2.8984,-1.3790,5.507
10.4360,5.0037,2.7181,-0.1330,5.696
10.4470,4.6988,2.7986,0.9752,5.555
10.4560,5.4077,2.6463,1.9189,6.319
10.4670,4.4326,0.7469,3.1295,5.477
10.4750,5.2818,-1.2952,1.8092,5.731
10.4910,0.8440,-3.1389,-0.4922,3.287
10.4960,-1.4374,-3.5099,-0.3974,3.814
10.5210,-3.4248,-3.1505,-0.1723,4.657
10.5260,-4.4941,-2.9397,0.5981,5.403
10.5290,-4.9274,-3.4709,0.9089,6.095
10.5410,-4.5879,-3.4627,0.8974,5.818
10.5480,-2.8089,-2.8525,1.2339,4.189
10.5630,-1.4101,-2.0949,0.8916,2.678
10.5680,-0.7275,-1.4914,0.1733,1.668
10.5770,0.0687,-0.7897,-0.1893,0.815
10.5980,-0.3439,-0.7687,-0.9069,1.238
10.6010,-0.1289,-0.5858,-0.8621,1.050
10.6250,0.2070,-0.3597,-0.4921,0.644
10.6280,0.5972,-0.1524,-0.1025,0.625
10.6290,0.6843,-0.0424,0.0441,0.687
10.6360,0.8638,0.3402,0.0976,0.933
10.6470,1.2514,1.1079,0.2866,1.696
10.6570,1.1131,1.2692,0.0975,1.691
10.6670,0.7132,0.9752,-0.2900,1.242
10.6760,0.6346,1.0262,0.1029,1.211
10.6980,0.9664,1.0344,1.0780,1.779
10.7000,1.5948,0.3732,1.3247,2.107
10.7250,1.6866,-0.2759,0.5054,1.782
10.7280,1.6031,-0.7640,-0.1083,1.779
10.7290,0.8305,-0.5754,0.2971,1.053
10.7360,0.1700,2.9809,1.1123,3.186
10.7470,0.2108,4.1361,0.7178,4.203
10.7580,-0.4649,2.5959,1.3645,2.969
10.7670,-0.4497,1.5552,0.9561,1.880
10.7780,-0.2684,1.5549,0.1984,1.590
10.8000,0.0090,1.9995,-0.3455,2.029
10.8030,0.6785,2.7768,-0.1980,2.865
10.8310,1.4212,2.6724,0.6188,3.089
10.8340,1.9734,2.2716,-0.0537,3.010
10.8370,2.1764,1.8309,-0.5713,2.901
10.8390,1.6933,0.3499,-0.8408,1.923
10.8470,0.2827,-0.8921,-0.4050,1.020
10.8590,-1.6939,-2.1336,1.0431,2.917
10.8670,-2.2812,-2.9244,2.1131,4.269
10.8760,-2.6009,-4.6220,2.2623,5.766
10.8920,-2.4388,-6.4908,1.8610,7.179
10.9090,-1.1592,-9.0745,1.4190,9.258
10.9090,0.7357,-9.7088,0.2561,9.740
10.9170,2.1246,-2.1123,-2.5874,3.959
10.9270,-0.4641,3.5217,-2.2999,4.232
10.9350,0.5379,-0.8396,0.9560,1.381
10.9470,2.2750,-3.1300,1.5437,4.166
10.9600,1.9566,-2.1580,1.2280,3.161
10.9670,1.8275,-1.1605,0.8572,2.328
10.9760,2.5757,-0.8421,0.2304,2.720
10.9870,2.7398,-0.8605,-0.7915,2.979
10.9970,2.1020,-0.9405,-1.2636,2.627
11.0230,1.9011,-0.3876,-1.1429,2.252
11.0250,1.8296,0.2829,-0.5996,1.946
11.0270,0.5964,0.0284,0.5695,0.825
11.0360,0.0408,-0.1193,1.2768,1.283
11.0470,-0.1421,-0.0838,1.3711,1.381
11.0600,-0.3118,-0.0513,0.9701,1.020
11.0670,-0.3200,-0.0143,0.3545,0.478
11.0770,-0.1488,-0.0233,-0.0748,0.168
11.0880,0.1442,-0.0955,-0.1877,0.255
11.1020,0.3456,-0.1291,-0.1653,0.404
11.1390,0.4436,-0.1252,0.0714,0.466
11.1420,0.5090,-0.1064,0.1595,0.544
11.1440,0.4508,-0.0953,0.1183,0.476
11.1450,0.3964,-0.1191,0.1434,0.438
11.1480,0.4201,-0.1012,0.2374,0.493
11.1600,0.5208,-0.0664,0.3245,0.617
11.1670,0.6795,-0.0735,0.4135,0.799
11.1770,0.6262,-0.0021,0.3846,0.735
11.1880,0.5746,0.0351,0.2519,0.628
11.1960,0.5054,0.0415,0.0895,0.515
11.2220,0.3368,0.0514,0.0950,0.354
11.2240,0.1543,0.0356,0.1859,0.244
11.2270,-0.0492,-0.1172,0.1152,0.172
11.2360,0.2271,-0.1667,-0.0829,0.294
11.2490,0.7453,1.0523,-0.7144,1.474
11.2600,0.1138,1.9320,-0.5269,2.006
11.2670,-0.1176,1.7931,0.0343,1.797
11.2760,-0.0255,1.3879,0.8076,1.606
11.2870,0.1974,0.8842,1.3784,1.650
11.2960,0.0561,0.0926,1.9819,1.985
11.3140,0.2794,-0.4498,1.5771,1.664
11.3160,0.2836,-0.7159,0.8244,1.128
11.3400,-0.3090,-0.9027,0.1693,0.969
11.3400,-0.3913,-0.7466,-0.5536,1.008
11.3510,0.1313,-0.3681,-1.1114,1.178
11.3560,0.9269,0.1244,-1.0184,1.383
11.3670,1.3986,0.6621,-0.3677,1.591
11.3760,1.2935,0.8746,0.6309,1.684
11.3870,0.8480,0.5878,1.2566,1.626
11.3960,0.2769,0.0339,1.7009,1.724
11.4120,0.3823,-0.3750,1.5760,1.664
11.4160,0.7927,-0.5019,1.0497,1.408
11.4340,0.8088,-0.4313,0.4130,1.005
11.4360,0.4688,-0.3369,-0.1402,0.594
11.4470,0.3997,-0.1204,-0.2659,0.495
11.4600,0.4881,0.2225,-0.3230,0.626
11.4660,0.4963,0.2487,-0.3050,0.633
11.4760,0.4313,0.3868,-0.2783,0.643
11.4870,0.4478,0.2491,-0.4099,0.656
11.4960,0.5583,0.1256,-0.2594,0.628
11.5190,0.3537,0.1886,0.0024,0.401
11.5250,0.0007,0.2489,0.4712,0.533
11.5280,-0.2109,0.3297,0.8423,0.929
11.5550,0.1634,0.0404,1.3580,1.368
11.5590,0.7997,-0.2382,1.4628,1.684
11.5610,0.6933,-0.3076,1.2184,1.435
11.5670,0.7888,0.1158,0.4406,0.911
11.5770,1.0714,0.4378,0.1789,1.171
11.5880,1.0387,0.1722,0.2089,1.073
11.6000,0.8665,-0.4680,-0.1418,0.995
11.6070,0.0643,-1.1166,-1.0781,1.553
11.6260,-0.4198,-1.4323,-1.8447,2.373
11.6270,-0.9740,-1.5574,-1.8856,2.632
11.6360,-0.8541,-0.9435,-1.1341,1.705
11.6470,0.2614,-0.5884,0.0582,0.647
11.6580,1.8200,-0.2197,0.6574,1.948
11.6670,2.1531,-0.3278,0.4893,2.232
11.6770,2.1078,-0.0648,0.4030,2.147
11.6880,1.7686,0.0771,0.2251,1.785
11.6970,1.0100,0.2476,0.0009,1.040
11.7190,0.3477,0.4165,-0.4435,0.701
11.7210,0.1389,0.5228,-0.4881,0.729
11.7570,-0.1207,0.7085,-0.3904,0.818
11.7600,-0.2552,0.9667,-0.2025,1.020
11.7610,-0.3560,1.1505,0.0594,1.206
11.7630,-0.3807,0.6151,0.4681,0.862
11.7670,-0.2497,-0.3391,0.9385,1.029
11.7760,-0.4000,-0.7409,1.2464,1.504
11.7870,-0.7379,-0.4992,1.2771,1.557
11.7960,-0.5981,-0.0830,1.1258,1.278
11.8180,0.0607,-0.0148,0.6962,0.699
11.8210,0.1624,-0.1274,0.3402,0.398
11.8540,-0.2529,-0.1297,-0.0251,0.285
11.8580,-0.3872,0.1872,-0.3527,0.556
11.8600,-0.2193,0.4822,-0.6465,0.836
11.8630,-0.3706,0.2421,-0.3113,0.541
11.8670,-0.2751,-0.2629,0.1913,0.426
11.8770,-0.1876,-0.3318,0.3198,0.498
11.8870,-0.0145,-0.1926,0.4238,0.466
11.9030,-0.2451,-0.0933,0.4830,0.550
11.9100,-0.1569,-0.0791,0.4308,0.465
11.9160,0.6206,-0.2554,0.3944,0.778
11.9270,1.0791,0.0470,0.5487,1.212
11.9360,1.7549,0.6525,0.9723,2.110
11.9500,2.0034,0.7691,0.9451,2.345
11.9560,0.3390,0.5103,0.1039,0.621
11.9770,-0.3366,0.2435,-0.4837,0.638
11.9800,-1.0659,0.9263,-0.5078,1.501
11.9870,-0.5370,1.7163,-0.2543,1.816
11.9960,0.8187,0.6245,0.0845,1.033
12.0150,3.7545,-1.3886,0.0484,4.003
12.0180,3.9046,0.0332,-0.0470,3.905
12.0390,1.5313,1.4940,0.6681,2.241
12.0390,0.2907,0.3811,0.8642,0.988
12.0460,-0.2501,-0.3274,0.5188,0.662
12.0560,-1.2856,0.1172,0.2192,1.309
12.0670,-1.1902,0.8548,0.1870,1.477
12.0760,-0.9126,1.6648,0.5692,1.982
12.0870,-0.5807,1.6525,0.9684,2.001
12.0970,-0.5169,1.5105,1.4485,2.156
12.1180,-0.8890,1.1769,1.7792,2.311
12.1210,-1.0825,0.6368,1.9839,2.348
12.1580,-4.3079,1.8264,2.3635,5.242
12.1620,-4.5114,1.3511,2.0624,5.141
12.1640,-2.7303,0.1490,1.3228,3.038
12.1650,0.2336,-2.3315,0.3731,2.373
12.1670,-1.0876,-1.9819,-0.8294,2.408
12.1780,-1.7049,-1.8386,-2.2625,3.377
12.1870,-2.7314,-1.1354,-3.0311,4.235
12.1970,-1.8507,-0.6764,-2.4371,3.134
12.2220,2.2477,-0.4658,-0.9695,2.492
12.2260,3.3525,0.2438,-0.1563,3.365
12.2310,1.8802,1.3741,-0.2540,2.343
12.2620,1.4462,2.3975,-1.4663,3.161
12.2650,3.3984,-0.2789,-1.6613,3.793
12.2680,1.8191,-2.4008,-0.7795,3.111
12.2700,0.2505,-3.4072,0.0160,3.416
12.2780,1.6110,-2.2149,0.7719,2.845
12.2870,2.9213,-0.0373,1.3249,3.208
12.2960,2.3900,0.3262,0.6981,2.511
12.3160,0.4472,-0.3968,-0.5986,0.846
12.3160,-0.8308,-0.7843,-1.3915,1.800
12.3280,-0.9350,-0.6406,-1.2285,1.671
12.3350,-0.9388,-0.3876,-0.5816,1.170
12.3470,-1.4759,-0.3809,-0.1550,1.532
12.3560,-2.4102,-0.3419,-0.7640,2.551
12.3670,-2.4522,-1.2938,-1.7532,3.280
12.3770,-3.2718,-2.1636,-2.0918,4.445
12.3870,-2.6819,-2.9222,-1.5829,4.271
12.3980,-0.6203,-2.3797,-0.9593,2.640
12.4200,0.8505,-1.7231,-0.8250,2.091
12.4260,1.9540,-0.9746,-0.8421,2.340
12.4290,1.8849,-0.3864,-0.4360,1.973
12.4570,1.8550,0.3161,0.2557,1.899
12.4590,2.0958,1.1386,0.8709,2.539
12.4610,1.5668,1.4923,1.5930,2.687
12.4670,1.7275,1.8061,2.1686,3.309
12.4780,1.6602,2.0069,2.4483,3.575
12.4870,1.1750,1.9076,2.1035,3.073
12.4970,1.0531,1.9840,1.6005,2.758
12.5190,1.1984,2.0024,1.2378,2.642
12.5210,-0.0347,0.9857,0.7934,1.266
12.5540,-1.4345,-0.8749,0.3365,1.714
12.5610,-2.6578,-1.9973,0.3337,3.341
12.5630,-1.6718,-1.6441,0.0189,2.345
12.5640,-0.2157,-0.7801,-0.8706,1.189
12.5690,1.1214,-0.3267,-1.6621,2.031
12.5780,2.1913,0.8225,-1.5704,2.819
12.5870,2.7811,1.9627,-0.9910,3.545
12.5960,4.3551,2.7595,-0.2513,5.162
12.6070,3.6376,2.5511,-0.5115,4.472
12.6160,2.0037,1.4219,-1.1372,2.707
12.6460,1.7940,1.2203,-1.4795,2.626
12.6470,3.0851,2.3117,-0.7695,3.931
12.6480,4.3027,2.9762,0.0076,5.232
12.6560,5.4471,3.3649,0.0368,6.403
12.6680,5.7529,2.8843,0.0258,6.436
12.6800,5.8811,2.4987,1.0201,6.471
12.6880,6.1043,2.4465,2.6285,7.082
12.6970,6.0210,1.9734,3.2362,7.115
12.7090,3.3225,-0.2391,3.6833,4.966
12.7230,-1.2680,-2.9644,5.1777,6.099
12.7300,-4.6290,-5.2237,4.3908,8.246
12.7360,-6.6840,-5.2408,2.7128,8.916
12.7600,-9.9883,-6.4547,-4.8511,12.844
12.7650,-9.4894,-5.5727,-8.9701,14.197
12.7680,-6.5776,-3.2781,-7.9070,10.795
12.7780,-4.2817,-2.4293,-6.4743,8.133
12.7870,-1.4353,-1.1824,-4.1715,4.567
12.7970,-0.1624,-0.3352,-2.1566,2.189
12.8070,0.9163,0.3107,0.3092,1.016
12.8160,1.5975,0.4646,1.8626,2.497
12.8400,1.7189,0.4568,2.2837,2.895
12.8410,1.3619,0.3285,1.4848,2.041
12.8470,0.4851,0.2396,0.5309,0.758
12.8560,-0.1668,0.1614,-0.3213,0.396
12.8670,-0.5859,-0.2083,-0.9696,1.152
12.8820,-1.7692,-0.3731,-1.2660,2.207
12.8880,-1.6000,-0.7189,-1.0751,2.057
12.9040,0.5993,-1.4642,-1.5181,2.193
12.9120,0.9884,-1.2637,-1.8407,2.442
12.9170,0.8156,-0.6483,-1.7289,2.019
12.9350,1.0750,0.4539,-1.3751,1.803
12.9380,0.2249,0.2966,-1.1185,1.179
12.9490,-0.3184,-0.1615,-0.1147,0.375
12.9560,-0.3167,-0.2803,0.8938,0.989
12.9750,0.2245,0.2165,1.4357,1.469
12.9760,0.3572,0.9504,1.4628,1.781
12.9870,-0.3487,1.3984,1.3112,1.948
12.9960,-1.7366,1.4601,0.9129,2.446
13.0070,-2.7505,1.9747,0.9134,3.507
13.0160,-4.0223,1.7154,0.9873,4.483
13.0410,-4.6355,0.7016,0.9987,4.793
13.0440,-5.0705,-0.4523,0.9412,5.177
13.0470,-4.3510,-0.5666,1.0647,4.515
13.0560,-2.5366,-0.7255,1.2611,2.924
13.0670,-1.6871,-0.5619,0.9694,2.025
13.0770,-0.9352,-0.4090,0.4620,1.120
13.0870,-1.3425,-0.0175,-0.1904,1.356
13.0980,-1.6300,-0.2375,-0.8122,1.837
13.1070,-1.2539,-0.0834,-1.4848,1.945
13.1180,0.8067,0.2544,-1.7956,1.985
13.1580,2.3463,0.1210,-1.8599,2.997
13.1620,1.8875,-0.0859,-1.8099,2.616
13.1630,1.7628,-0.5476,-1.2507,2.230
13.1650,2.6171,-0.7270,-0.2882,2.731
13.1670,2.5975,-0.4769,0.2469,2.652
13.1790,1.9114,-0.0247,0.2816,1.932
13.1880,1.5973,0.3115,0.3217,1.659
13.1960,1.2661,0.4358,0.2338,1.359
13.2070,0.9239,0.4326,0.0459,1.021
13.2190,0.5725,0.4464,0.0042,0.726
13.2400,0.1817,0.3208,0.0933,0.380
13.2410,-0.1585,0.2357,0.2304,0.366
13.2470,-0.3457,0.1520,0.3931,0.545
13.2560,-0.4839,0.1227,0.4133,0.648
13.2670,-0.4803,0.0033,0.2992,0.566
13.2810,-0.3820,-0.0911,0.1311,0.414
13.2870,-0.2423,-0.1569,-0.0762,0.299
13.2980,-0.0189,-0.1343,-0.3055,0.334
13.3080,0.2093,0.0038,-0.4136,0.464
13.3170,0.2400,0.0466,-0.3592,0.435
13.3400,0.1434,0.0127,-0.1390,0.200
13.3430,0.0579,0.1181,0.0694,0.149
13.3960,-0.0757,0.2016,0.3079,0.376
13.3990,-0.1275,0.2248,0.4996,0.562
13.4010,-0.1708,0.2459,0.6254,0.693
13.4020,-0.3240,0.1523,0.5840,0.685
13.4030,-0.1650,0.2006,0.3311,0.421
13.4040,-0.2988,0.0696,0.0502,0.311
13.4070,-0.2956,-0.0010,-0.1883,0.351
13.4160,-0.2474,-0.0000,-0.3872,0.459
13.4370,-0.1848,0.0235,-0.5865,0.615
13.4390,-0.2004,0.0566,-0.6383,0.671
13.4660,-0.1703,0.0669,-0.4963,0.529
13.4680,-0.0956,0.0628,-0.2378,0.264
13.4700,-0.0256,0.1027,0.0452,0.115
13.4790,-0.0080,0.0634,0.2512,0.259
13.4870,0.0483,0.0025,0.3138,0.318
13.4980,0.0361,-0.0285,0.2418,0.246
13.5070,0.0617,-0.0211,0.0569,0.087
13.5160,0.1038,0.0294,-0.1235,0.164
13.5450,0.2245,0.1444,-0.2055,0.337
13.5450,0.2789,0.2067,-0.1745,0.389
13.5470,0.2954,0.1931,-0.0508,0.357
13.5560,0.2104,0.1754,0.1115,0.296
13.5670,0.0194,0.1489,0.1928,0.244
13.5760,-0.2066,0.1114,0.1994,0.308
13.5880,-0.3687,0.0738,0.1974,0.425
13.6060,-0.4770,0.0530,0.1957,0.518
13.6100,-0.5218,0.0483,0.2082,0.564
13.6420,-0.4000,0.1315,0.2122,0.472
13.6450,-0.4202,0.1508,0.2228,0.499
13.6470,-0.3427,0.1013,0.1934,0.406
13.6490,-0.1273,0.0872,0.0447,0.161
13.6560,-0.0548,0.0623,-0.1908,0.208
13.6670,0.0562,0.0445,-0.4099,0.416
13.6760,0.1658,0.0372,-0.6077,0.631
13.6870,0.1543,0.0210,-0.6204,0.640
13.7000,0.0964,-0.0007,-0.4873,0.497
13.7070,0.0159,-0.0302,-0.3232,0.325
13.7290,-0.0626,-0.0183,-0.1444,0.158
13.7310,-0.1408,0.0257,-0.0453,0.150
13.7360,-0.2290,0.0889,0.0121,0.246
13.7470,-0.2291,0.1343,0.0047,0.266
13.7560,-0.1817,0.1524,-0.0264,0.239
13.7670,-0.1256,0.1528,-0.0439,0.203
13.7770,-0.0578,0.1116,-0.0534,0.137
13.7880,0.0127,0.0991,-0.0282,0.104
13.8080,0.0722,0.0723,-0.0054,0.102
13.8160,0.1261,0.0644,-0.0108,0.142
13.8190,0.1584,0.0744,-0.0168,0.176
13.8610,0.1599,0.1033,-0.0055,0.190
13.8640,0.1342,0.1309,-0.0414,0.192
13.8660,0.0900,0.1309,-0.0296,0.162
13.8680,0.0418,0.1069,0.0196,0.116
13.8690,0.0141,0.1199,0.0955,0.154
13.8760,0.0237,0.1271,0.1631,0.208
13.8870,-0.0033,0.1582,0.1731,0.235
13.9000,-0.0048,0.1859,0.1668,0.250
13.9140,0.0216,0.1730,0.1536,0.232
13.9170,0.0587,0.1542,0.1128,0.200
13.9430,0.1147,0.1665,0.0329,0.205
13.9440,0.1129,0.2219,-0.0488,0.254
13.9470,0.0868,0.1886,-0.1118,0.236
13.9560,0.0235,0.1263,-0.1361,0.187
13.9670,-0.0425,0.1023,-0.1309,0.171
13.9760,-0.1027,0.1044,-0.0917,0.173
13.9890,-0.1952,0.1054,-0.0242,0.223
14.0090,-0.2406,0.0753,0.0037,0.252
14.0120,-0.2373,0.0681,-0.0444,0.251
14.0180,-0.2376,0.0349,-0.0956,0.259
14.0540,-0.1793,-0.0088,-0.1330,0.223
14.0580,-0.1485,-0.0260,-0.1719,0.229
14.0590,-0.0919,-0.0573,-0.2124,0.238
14.0600,-0.0036,-0.0767,-0.1920,0.207
14.0670,0.1145,-0.1106,-0.2366,0.285
14.0760,0.1232,-0.0691,-0.3595,0.386
14.0880,0.0928,-0.0291,-0.4313,0.442
14.0980,0.0481,0.0202,-0.4672,0.470
14.1070,0.0489,0.0308,-0.4366,0.440
14.1200,0.0249,0.0061,-0.3168,0.318
14.1570,0.0084,-0.0095,-0.2236,0.224
14.1600,-0.0535,-0.0314,-0.1875,0.198
14.1620,-0.0985,-0.0823,-0.2037,0.241
14.1640,-0.1635,-0.1346,-0.2916,0.360
14.1680,-0.2288,-0.1487,-0.3830,0.470
14.1760,-0.2698,-0.1197,-0.5304,0.607
14.1870,-0.3119,-0.0882,-0.6884,0.761
14.1980,-0.3708,-0.0516,-0.8177,0.899
14.2070,-0.3789,-0.0218,-0.8460,0.927
14.2250,-0.3936,-0.0374,-0.7729,0.868
14.2320,-0.3941,-0.0468,-0.6657,0.775
14.2630,-0.3862,-0.1031,-0.5363,0.669
14.2640,-0.3191,-0.1487,-0.4534,0.574
14.2650,-0.2142,-0.2626,-0.4155,0.536
14.2670,-0.1439,-0.2859,-0.4754,0.573
14.2760,-0.1623,-0.2914,-0.6531,0.733
14.2870,-0.2322,-0.3390,-0.8815,0.973
14.2990,-0.3834,-0.4431,-1.1349,1.277
14.3090,-0.4302,-0.4912,-1.3537,1.503
14.3250,-0.4656,-0.5301,-1.5292,1.684
14.3720,-0.4670,-0.6101,-1.7400,1.902
14.3760,-0.4829,-0.7481,-2.0600,2.244
14.3790,-0.6481,-0.9200,-2.4113,2.661
14.3810,-0.9327,-1.0650,-2.7549,3.097
14.3830,-1.2047,-1.1963,-2.8362,3.305
14.3840,-1.5606,-1.3523,-2.9212,3.577
14.3920,-2.1193,-1.6001,-2.7935,3.854
14.3990,-2.7322,-2.0002,-2.3218,4.106
14.4070,-3.9541,-2.3812,-0.9225,4.707
14.4190,-5.2466,-2.4777,-0.1169,5.803
14.4270,-5.7550,-2.0612,0.8655,6.174
14.4510,-5.0873,-1.5504,2.1813,5.748
14.4520,-4.3502,-1.3238,1.2255,4.709
14.4560,-2.4969,-1.0936,0.9020,2.871
14.4670,0.3860,-0.1060,2.5717,2.603
14.4760,2.0855,0.8441,3.4085,4.084
14.4900,2.9130,1.7250,2.4258,4.165
14.5030,2.8590,2.0424,1.2827,3.740
14.5090,2.0176,2.0485,-0.2731,2.888
14.5240,0.9016,1.7404,-1.3750,2.394
14.5280,0.0679,1.3444,-1.1489,1.770
14.5360,-0.2599,1.0917,-0.4261,1.200
14.5830,-0.3415,0.9478,0.2145,1.030
14.5860,-0.5380,0.7951,0.5427,1.103
14.5900,-0.5550,0.5510,0.6546,1.020
14.5920,-0.7186,0.2688,0.1720,0.786
14.5930,-0.9099,-0.1641,0.6178,1.112
14.5990,-0.8733,-0.3288,0.1541,0.946
14.6070,-0.8328,-0.3714,-0.4926,1.036
14.6190,-0.4366,-0.0138,-0.4820,0.650
14.6270,0.0413,0.4440,-0.8874,0.993
14.6390,0.1008,0.7180,-0.8396,1.109
14.6680,0.2333,0.9416,-0.9550,1.361
14.6690,0.3375,1.0557,-1.0037,1.495
14.6690,0.4831,0.9214,-1.1124,1.523
14.6760,0.6407,0.9114,-1.2453,1.671
14.6870,0.6454,0.8629,-1.1121,1.549
14.7000,0.7484,1.0358,-1.4562,1.937
14.7070,0.6012,0.9886,-1.4174,1.830
14.7170,0.5681,0.8903,-1.8669,2.145
14.7280,0.5038,0.9388,-2.2103,2.454
14.7430,0.2446,0.7693,-2.1028,2.252
14.7520,-0.1182,0.5440,-2.2066,2.276
14.7580,-0.5515,0.4575,-1.7096,1.854
14.7970,-0.4775,0.5476,-1.6667,1.818
14.8010,-0.7075,0.7814,-1.6202,1.933
14.8020,-0.9892,0.7013,-1.2207,1.721
14.8030,-1.4574,0.3215,-0.9809,1.786
14.8070,-2.0570,0.1305,-0.0772,2.063
14.8180,-1.7882,0.0824,0.6718,1.912
14.8270,-2.0876,0.3068,1.2098,2.432
14.8400,-1.9189,0.6621,1.0900,2.304
14.8750,-1.8564,1.1716,0.6096,2.278
14.8780,-2.1970,1.2052,0.5472,2.565
14.8800,-2.2570,1.3636,0.9059,2.788
14.8830,-1.3741,1.9695,1.1757,2.674
14.8880,-0.2144,2.3032,1.4684,2.740
14.8980,0.9788,2.9295,1.5918,3.475
14.9070,1.9679,3.4880,0.9782,4.123
14.9170,2.3877,4.0019,0.5222,4.689
14.9270,2.5561,4.1878,-0.1540,4.909
14.9490,2.2570,4.2743,-0.0151,4.834
14.9500,2.3142,4.3373,-0.1987,4.920
14.9570,2.2848,4.3861,-0.7000,4.995
14.9690,1.4511,3.9927,-1.2398,4.425
14.9780,0.8549,3.7872,-2.1208,4.424
14.9900,0.1393,3.5632,-2.4015,4.299
15.0040,-0.0040,3.7377,-2.7306,4.629
15.0070,-0.5940,3.9764,-3.2055,5.142
15.0160,-1.2480,4.1468,-3.6349,5.654
15.0270,-1.5583,3.9344,-3.6786,5.607
15.0360,-0.8302,3.2341,-3.3203,4.709
15.0680,3.5491,-0.3084,-3.3214,4.871
15.0690,14.2732,-8.4823,2.0600,16.731
15.0700,26.5400,-28.7687,-3.7795,39.323
15.0760,-6.5224,-30.3076,-20.9794,37.433
15.0940,-15.3352,-24.3331,-1.5094,28.802
15.1010,-6.8852,-3.7695,15.3611,17.250
15.1220,-1.0687,7.7606,16.5047,18.269
15.1230,1.1569,12.4137,10.3496,16.203
15.1470,4.5464,14.6364,8.7054,17.626
15.1480,6.1664,13.4912,8.1064,16.904
15.1480,6.3665,10.1010,7.4325,14.064
15.1560,5.8099,5.0109,7.9403,11.041
15.1680,3.8277,1.4294,10.3765,11.152
15.1760,3.5949,-1.9422,12.7891,13.426
15.1880,4.4448,-3.5935,13.3031,14.479
15.1960,4.8199,-3.2503,11.5230,12.906
15.2070,3.8477,-3.0955,8.8700,10.152
15.2230,2.1341,-3.5983,8.1381,9.150
15.2270,0.7778,-5.2075,8.2314,9.771
15.2410,-6.1405,-7.5382,-10.5247,14.328
15.2480,-7.3022,-5.2238,-13.7316,16.406
15.2550,-6.5333,-1.8169,-10.0590,12.131
15.2670,-6.5128,0.2686,-5.4543,8.499
15.2750,-7.4735,0.9509,-1.0610,7.608
15.2870,-8.7939,0.8548,0.9721,8.889
15.2960,-9.5530,0.4206,2.2533,9.824
15.3060,-8.6500,-0.1918,2.6181,9.040
15.3170,-5.6092,-0.2494,2.5079,6.149
15.3270,-3.1806,0.0701,2.0756,3.799
15.3360,-1.1761,0.0965,0.9790,1.533
15.3480,-0.0663,-0.2357,-1.2197,1.244
15.3550,2.2667,-0.5376,-4.6437,5.195
15.3670,4.1547,-0.7748,-6.6846,7.909
15.3750,5.1341,-0.4994,-6.4396,8.251
15.3870,3.8610,0.3123,-4.8160,6.181
15.3960,1.0710,0.9004,-2.5910,2.945
15.4060,-1.4260,0.3552,-0.4844,1.547
15.4180,-2.2885,0.0994,1.4953,2.735
15.4300,-0.5266,0.5196,2.2318,2.351
15.4640,-0.2469,0.9969,2.9106,3.086
15.4690,-0.3154,1.3897,3.4623,3.744
15.4720,0.1401,1.5341,4.1225,4.401
15.4740,0.8318,1.2309,4.9215,5.141
15.4770,1.7779,0.3141,5.0448,5.358
15.4880,1.3656,-1.0881,3.4509,3.868
15.4970,1.0654,-2.1432,1.4669,2.807
15.5080,0.8685,-2.6307,-1.7464,3.275
15.5310,0.5902,-2.2904,-7.0368,7.424
15.5370,-0.0806,-1.2687,-14.4844,14.540
15.5410,-0.5852,-0.6070,-16.7909,16.812
15.5660,-1.2629,-0.7707,-12.3806,12.469
15.5710,-1.9781,-1.6533,-7.1654,7.615
15.5740,-2.9221,-2.1303,-3.2397,4.855
15.5780,-3.7803,-2.4176,-1.0683,4.613
15.5870,-4.1621,-2.7216,-0.2645,4.980
15.5960,-4.6910,-3.0202,-1.4243,5.758
15.6070,-6.0204,-4.5216,-3.6974,8.388
15.6210,-6.8899,-6.2077,-4.7589,10.424
15.6270,-6.9626,-7.2190,-2.9499,10.454
15.6450,-5.8241,-7.0117,-0.9784,9.167
15.6470,-4.7572,-7.6232,-1.4915,9.109
15.6560,-4.7829,-7.9537,-4.2674,10.215
15.6680,-2.1403,-6.4388,-7.6806,10.248
15.6760,0.9416,-5.6028,-8.8135,10.486
15.6880,4.0443,-5.3012,-2.9268,7.282
15.6960,4.8973,-5.2930,5.4770,9.055
15.7080,5.4840,-5.2337,8.9366,11.719
15.7250,4.7842,-5.0002,10.6982,12.741
15.7300,3.9383,-4.3961,11.8994,13.283
15.7360,2.3610,-3.4569,10.6434,11.437
15.7470,0.7720,-1.5370,9.8612,10.010
15.7580,-2.5997,-1.7601,8.6322,9.185
15.7670,-8.5071,-3.8999,1.0900,9.422
15.7760,-14.7335,-6.3971,-0.7692,16.081
15.7870,-13.2646,-6.9228,-1.0920,15.002
15.7960,-3.8719,-4.3823,-0.6679,5.886
15.8130,1.2688,-1.5548,2.5945,3.280
15.8380,4.0787,0.9636,4.5834,6.211
15.8410,4.0056,1.6811,5.5684,7.062
15.8430,2.8732,2.2860,7.7078,8.538
15.8590,2.2238,2.9434,8.5430,9.305
15.8620,1.4240,2.9437,7.3859,8.077
15.8800,0.7669,2.2442,5.9168,6.374
15.8800,0.0255,1.5042,5.8832,6.073
15.8880,0.3517,1.4862,6.8065,6.976
15.9050,1.2247,1.8678,6.8171,7.174
15.9070,1.2747,2.3020,6.9982,7.477
15.9180,2.3920,3.4891,7.0583,8.229
15.9270,3.1128,4.5518,7.2580,9.115
15.9380,2.8568,5.1314,7.3107,9.378
15.9470,2.6024,5.5391,7.2544,9.491
15.9610,2.4017,5.7989,7.1122,9.486
15.9670,2.4428,6.1464,6.4965,9.271
15.9780,2.1766,6.5924,5.4353,8.817
15.9880,1.7883,6.9690,4.4226,8.445
15.9960,1.3705,7.3044,2.6865,7.903
16.0070,0.9965,7.1026,0.8968,7.228
16.0270,0.2360,6.0628,-1.2902,6.203
16.0330,-0.3001,4.5272,-3.7179,5.866
16.0540,-0.6653,2.3016,-7.8869,8.243
16.0550,-1.0887,-0.1743,-8.9326,9.000
16.0560,-0.1984,-1.9341,-7.1559,7.415
16.0670,1.2427,-4.1200,-5.8488,7.261
16.0760,0.3180,-6.2437,-5.7017,8.461
16.0870,-0.9690,-7.3925,-6.0240,9.585
16.0960,-1.7357,-6.5406,-5.1603,8.510
16.1100,-3.2870,-4.4349,-7.2272,9.094
16.1330,-5.8182,-3.5266,-8.7016,11.046
16.1380,-4.7800,-4.6271,-2.0006,6.947
16.1420,6.0991,-9.6469,9.7322,14.999
16.1490,16.5651,-12.3254,-0.1150,20.648
16.1730,22.9479,-18.4673,-7.3641,30.362
16.1740,10.0995,-14.7931,4.7606,18.534
16.2030,1.8191,-3.9030,14.3117,14.945
16.2040,0.7531,2.6578,13.4511,13.732
16.2050,0.0316,4.7001,14.3214,15.073
16.2070,-1.0631,5.8535,14.2239,15.418
16.2240,-2.8350,6.0885,12.8994,14.543
16.2270,-6.9237,4.1026,13.9595,16.113
16.2530,-10.8673,1.2025,15.0401,18.594
16.2540,-10.8881,-0.4026,12.5021,16.584
16.2560,-8.8787,-4.0810,11.0257,14.733
16.2790,-9.0573,-10.2771,11.1301,17.650
16.2800,-8.6476,-13.0180,11.8488,19.612
16.2870,-7.6419,-10.0976,5.3719,13.756
16.2960,-3.1258,-4.7878,-1.2001,5.842
16.3130,1.9220,-0.9286,-6.6747,7.008
16.3280,5.7831,1.7122,-10.9643,12.514
16.3290,9.3052,4.0263,-12.6977,16.249
16.3380,10.5853,5.5545,-11.1326,16.335
16.3470,9.7627,6.1120,-8.8597,14.531
16.3620,6.0824,5.2342,-5.2432,9.586
16.3680,2.0778,3.0795,-1.3111,3.939
16.3750,-2.1390,-0.0059,2.1218,3.013
16.3860,-4.1264,-1.6654,2.4370,5.073
16.3950,-4.1332,-1.2737,0.3584,4.340
16.4060,-0.1467,-0.8733,-3.0841,3.209
16.4200,2.9986,-1.4657,-6.8779,7.645
16.4270,3.9161,-1.4062,-7.2748,8.381
16.4420,2.3488,-0.1951,-6.1913,6.625
16.4460,-0.1929,0.9612,-4.1559,4.270
16.4550,-3.2366,1.6148,-0.8840,3.724
16.4740,-5.2477,1.4959,1.9302,5.788
16.4800,-5.5055,0.2647,4.5120,7.123
16.4910,-3.9917,-0.3096,5.1998,6.563
16.4960,-2.6705,-1.2999,4.6376,5.507
16.5080,-1.5200,-2.1145,3.6655,4.496
16.5300,-1.2015,-3.0284,2.2049,3.934
16.5340,-1.8129,-3.7966,-0.4141,4.228
16.5770,-2.5439,-4.3545,-5.3735,7.369
16.5810,-2.4743,-4.3480,-10.4371,11.574
16.5840,-1.7186,-3.9304,-13.4722,14.139
16.5860,-0.6852,-2.9946,-12.0672,12.452
16.5890,-0.0814,-2.0587,-8.2459,8.499
16.5910,0.3205,-2.1995,-4.3163,4.855
16.5960,-0.8004,-3.3363,-4.1735,5.403
16.6070,-3.2213,-4.3871,-6.9675,8.841
16.6220,-6.8063,-6.6696,-9.9198,13.755
16.6270,-9.5289,-8.5533,-8.8964,15.592
16.6540,-10.6311,-9.0738,-4.2446,14.607
16.6550,-10.6978,-8.4478,-0.1557,13.632
16.6560,-10.5988,-7.4225,0.3842,12.945
16.6730,-11.3220,-6.6127,0.3464,13.116
16.6770,-9.9568,-6.2343,0.2346,11.750
16.7040,-5.1209,-5.0666,0.6252,7.231
16.7070,-0.7862,-4.3831,3.2727,5.526
16.7090,1.5364,-5.0065,6.1701,8.093
16.7340,2.5575,-5.8336,7.3375,9.717
16.7380,2.6609,-6.6632,7.2523,10.202
16.7410,1.7555,-7.3501,7.7161,10.800
16.7480,-0.8550,-8.0506,10.3162,13.114
16.7560,-4.8458,-8.2774,16.4528,19.044
16.7780,-6.0897,-7.2895,9.2632,13.268
16.7790,-6.8944,-7.0311,-2.7361,10.220
16.8060,-3.1863,-6.1354,-8.0017,10.575
16.8070,0.7145,-4.0546,-2.3969,4.764
16.8070,2.7752,-2.3426,3.7848,5.245
16.8160,5.3547,-0.5017,8.7690,10.287
16.8280,6.8064,1.4601,8.5728,11.043
16.8390,3.5745,2.4629,8.0764,9.169
16.8470,1.5196,2.5425,8.1304,8.653
16.8890,1.0598,2.3920,7.1101,7.576
16.8910,1.0919,1.9644,6.1718,6.568
16.8920,0.7554,1.5938,5.2368,5.526
16.8940,1.7864,2.0714,3.6379,4.552
16.9070,3.1111,3.4611,2.8380,5.451
16.9110,4.5315,4.5201,3.1542,7.135
16.9170,5.0340,4.5790,4.9225,8.399
16.9280,4.8334,4.0858,6.2685,8.908
16.9570,4.7063,4.1183,7.4561,9.732
16.9580,4.5893,5.1784,8.5972,11.036
16.9590,4.9993,6.5880,9.1828,12.358
16.9690,5.0092,8.1341,8.9426,13.085
16.9750,4.0701,9.1573,8.5392,13.166
16.9880,3.6214,9.9463,7.5659,13.011
16.9960,2.3110,9.9438,5.2877,11.497
17.0070,1.0641,9.9189,2.8134,10.365
17.0170,-0.4098,10.0606,-0.7856,10.100
17.0320,-2.2641,8.7971,-3.1866,9.626
17.0630,-3.2471,6.0893,-5.0085,8.527
17.0640,-4.0434,2.6940,-5.9461,7.679
17.0650,-5.2245,-1.6728,-6.2605,8.324
17.0670,-6.1273,-5.8098,-5.8331,10.263
17.0760,-5.0953,-9.9196,-4.8038,12.142
17.0880,-2.6837,-12.2628,-4.6508,13.387
17.0960,-0.2093,-12.1518,-6.0900,13.594
17.1110,-0.9988,-9.2122,-8.5120,12.582
17.1160,-1.8807,-2.4087,-5.1744,6.009
17.1460,-1.6652,3.2486,2.0826,4.203
17.1470,5.6672,4.2811,10.5856,12.748
17.1480,20.7180,-0.9731,13.7790,24.901
17.1740,26.7453,-13.9759,9.6845,31.693
17.1750,2.8593,-26.7856,-3.6197,27.180
17.1760,2.7985,-12.9731,1.1113,13.318
17.2050,3.4093,-2.7425,6.6771,7.983
17.2060,-1.2778,-0.5265,2.8589,3.175
17.2070,-0.6843,5.4282,-7.4353,9.231
17.2340,1.7113,8.8170,3.1296,9.511
17.2340,0.8358,6.2364,5.4145,8.301
17.2590,0.1185,4.6275,2.3503,5.191
17.2610,1.9493,4.0730,1.8361,4.874
17.2630,3.7193,3.1258,2.4707,5.450
17.2670,5.4676,1.3866,3.1303,6.451
17.2760,4.8205,-0.7730,4.0506,6.344
17.3010,2.1138,-3.8527,5.7708,7.254
17.3020,-0.4605,-5.8742,8.0382,9.966
17.3060,-1.3186,-5.4732,10.2597,11.703
17.3150,-3.0234,-3.6820,11.0923,12.072
17.3260,-4.8555,-1.3858,9.6583,10.899
17.3410,-5.6902,1.0848,6.5554,8.748
17.3470,-5.5122,2.6124,3.2301,6.902
17.3690,-5.2310,3.6707,-0.1705,6.393
17.3700,-5.8926,3.7759,-5.4715,8.884
17.3760,-5.6768,2.8980,-8.4983,10.623
17.3880,-6.1039,1.5449,-8.2326,10.364
17.3950,-5.4188,0.3888,-5.6823,7.861
17.4060,-2.9355,0.1239,-2.5704,3.904
17.4150,0.0385,0.6964,-0.2119,0.729
17.4270,3.3302,1.2427,1.7672,3.970
17.4490,5.7075,1.3710,0.2218,5.874
17.4500,7.0881,0.7582,-5.1664,8.804
17.4560,6.4319,-0.2641,-10.0049,11.897
17.4660,4.2641,-1.2309,-10.9894,11.852
17.4760,2.2909,-1.4212,-7.3815,7.858
17.4880,0.7653,-1.4027,-5.1883,5.429
17.4970,-1.5492,-1.6484,-4.1285,4.708
17.5170,-3.0435,-1.7692,-4.0437,5.361
17.5220,-4.5748,-2.0627,-4.4359,6.698
17.5330,-5.6606,-2.7645,-4.2730,7.612
17.5410,-6.7906,-4.0111,-3.5291,8.640
17.5720,-7.9739,-4.7392,-3.3866,9.875
17.5780,-8.8371,-4.8362,-4.0543,10.859
17.5820,-8.5459,-4.4247,-5.9286,11.303
17.5850,-7.9101,-3.9970,-8.3460,12.174
17.6000,-7.3220,-3.4700,-9.3267,12.355
17.6010,-6.6522,-2.7944,-10.0122,12.341
17.6070,-6.5684,-2.0708,-10.0997,12.224
17.6160,-8.0879,-3.2839,-7.6984,11.639
17.6270,-8.5729,-6.2370,-4.6127,11.562
17.6400,-6.8106,-9.4719,-1.8658,11.815
17.6470,-3.6022,-12.1706,-3.9939,13.306
17.6780,3.5381,-11.3405,-3.6041,12.414
17.6800,6.2153,-7.6117,3.0036,10.276
17.6800,3.8053,-7.7850,8.8175,12.363
17.7140,2.7297,-9.3706,10.1604,14.089
17.7180,7.0915,-10.6873,5.4171,13.923
17.7210,12.9684,-12.5785,-0.9007,18.089
17.7250,12.1227,-13.4563,-6.4198,19.216
17.7290,8.2967,-11.5869,-2.7324,14.511
17.7460,3.0232,-8.5470,2.9863,9.545
17.7490,-2.5674,-6.1510,5.3969,8.576
17.7740,-0.4214,-2.6598,-4.5827,5.315
17.7740,-0.4626,-0.5084,-1.8870,2.008
17.8020,-1.1140,0.6850,5.8516,5.996
17.8020,0.8232,2.9164,4.3500,5.301
17.8030,3.0781,5.2466,7.2026,9.428
17.8060,2.6460,5.4142,11.2384,12.752
17.8160,4.0428,6.1318,9.6471,12.125
17.8300,5.2714,6.9437,7.0350,11.202
17.8500,4.1980,7.3264,5.9975,10.357
17.8540,2.9764,7.4102,5.3223,9.597
17.8590,2.6036,6.9231,5.3654,9.138
17.8890,1.7942,6.0514,5.6897,8.498
17.8930,1.0579,5.1863,6.2852,8.217
17.8950,2.2967,5.1510,6.8652,8.885
17.9090,4.5405,6.4111,7.2596,10.697
17.9120,6.8020,8.1984,7.9238,13.277
17.9180,7.3192,8.7381,8.8797,14.449
17.9270,7.1633,9.1302,9.5235,15.012
17.9370,5.2489,8.7512,9.2994,13.806
17.9470,3.8485,8.4216,7.7277,12.060
17.9580,2.7209,8.0416,5.9525,10.368
17.9670,1.7897,7.6228,3.6417,8.636
17.9960,0.3566,6.6759,0.6762,6.720
17.9970,-2.6488,4.2603,-4.9781,7.067
17.9980,-4.8845,1.5303,-10.4382,11.626
18.0070,-6.1920,-1.8751,-15.7415,17.019
18.0160,-6.7788,-6.6908,-16.6958,19.222
18.0290,-4.2001,-9.4846,-6.3431,12.159
18.0650,-0.8685,-10.6810,-4.1462,11.490
18.0660,-0.7078,-11.6623,-4.8861,12.664
18.0670,1.1344,-10.6022,-9.6809,14.402
18.0680,5.9047,-12.0344,-11.1272,17.421
18.0760,15.4649,-16.9077,-1.0164,22.936
18.1040,18.3710,-23.3690,-7.1738,30.579
18.1050,5.3063,-17.6974,0.1359,18.476
18.1070,5.8305,-2.2999,13.6077,14.982
18.1160,6.1463,6.1538,11.1030,14.104
18.1300,4.5515,8.0028,6.7241,11.401
18.1580,3.1042,8.4493,5.6947,10.652
18.1620,2.6689,8.4281,6.3761,10.900
18.1650,2.1401,7.4483,7.4677,10.762
18.1690,1.9905,6.4308,9.1927,11.394
18.1840,1.8823,5.7091,11.6071,13.071
18.1890,1.2116,4.4736,12.1227,12.979
18.1980,1.2816,2.3367,12.3639,12.648
18.2100,0.8966,-0.1136,13.8698,13.899
18.2170,-0.7367,-3.8529,13.4160,13.978
18.2270,-1.9385,-6.6674,9.4854,11.755
18.2480,-1.6226,-7.8148,4.9275,9.380
18.2490,-0.3161,-6.4346,2.7319,6.998
18.2570,-0.4781,-4.4117,1.7737,4.779
18.2660,-1.2626,-2.3759,2.3568,3.577
18.2770,-2.3712,0.3981,3.5597,4.296
18.2880,-4.9075,0.2377,-2.9515,5.732
18.2960,-6.0953,0.3700,-10.0316,11.744
18.3070,-5.6669,1.1350,-12.0555,13.369
18.3150,-4.8881,2.0145,-11.1165,12.310
18.3270,-3.2049,2.7001,-7.4824,8.576
18.3360,-1.6893,2.6589,-4.3398,5.363
18.3480,-1.2891,1.6871,-0.3122,2.146
18.3560,-0.9266,0.8242,1.9764,2.333
18.3660,0.1062,0.2099,1.6985,1.715
18.3760,1.3015,0.0102,-0.6537,1.456
18.3880,1.4693,-0.5232,-3.7757,4.085
18.3950,0.3703,-1.0310,-6.1351,6.232
18.4070,-1.1148,-1.6800,-7.4285,7.697
18.4150,-1.6201,-2.3164,-7.4451,7.964
18.4440,-1.2165,-3.2259,-7.0515,7.849
18.4510,-0.8622,-3.7242,-6.9295,7.914
18.4550,-0.3320,-3.5691,-7.1041,7.957
18.4580,-0.4209,-3.3502,-6.6683,7.474
18.4970,-1.6559,-3.4462,-5.5736,6.759
18.5010,-3.8106,-4.1673,-5.2917,7.739
18.5040,-6.6173,-4.9814,-5.4634,9.922
18.5080,-8.9546,-4.9379,-5.8743,11.793
18.5110,-10.3017,-4.0994,-6.6582,12.933
18.5250,-11.0852,-3.6079,-7.0091,13.602
18.5290,-12.5217,-4.8068,-6.5482,14.926
18.5580,-14.5097,-7.0582,-4.3192,16.703
18.5600,-15.1219,-8.7766,-0.8798,17.506
18.5610,-15.3940,-11.0950,0.3978,18.980
18.5670,-10.7343,-12.3887,-0.3757,16.397
18.5770,-0.9229,-10.9051,-2.7271,11.279
18.6110,10.3389,-9.9736,-8.5965,16.741
18.6120,16.2752,-9.2940,-5.8471,19.633
18.6130,12.7910,-9.5872,0.6543,15.999
18.6160,11.4228,-9.9590,3.3015,15.510
18.6310,11.0966,-11.0876,2.5109,15.886
18.6360,10.9011,-11.1704,1.6375,15.694
18.6620,7.6639,-9.5868,7.2904,14.276
18.6630,3.2318,-6.0277,14.3366,15.884
18.6870,0.6453,-4.2571,5.0943,6.670
18.6880,-1.3020,-3.2665,-10.7861,11.345
18.6890,1.9042,-0.8903,-11.5308,11.721
18.7140,3.2128,0.8736,-2.0952,3.934
18.7140,4.9085,1.8814,4.7150,7.061
18.7160,4.9274,3.6701,12.9980,14.377
18.7270,3.4453,4.2227,11.6383,12.851
18.7360,1.5925,4.8113,6.9273,8.583
18.7590,-0.3535,5.3839,5.1415,7.453
18.7610,0.2380,6.2400,5.0378,8.023
18.7680,0.7389,6.6923,5.4518,8.663
18.7770,0.6455,6.5197,5.1959,8.362
18.7880,0.6506,5.9332,5.2473,7.947
18.7990,2.0320,5.6778,5.4099,8.101
18.8100,3.3528,5.9185,6.1680,9.182
18.8160,4.5895,6.5249,7.9992,11.297
18.8270,5.2536,6.9416,8.8000,12.378
18.8360,6.3036,7.4481,9.2169,13.422
18.8470,6.0946,7.6096,9.3682,13.521
18.8750,5.4211,7.5460,8.8649,12.842
18.8760,4.3673,7.7094,7.1904,11.411
18.8770,3.5560,7.9370,5.5138,10.298
18.8870,1.8436,8.3048,2.7620,8.944
18.8960,-0.1608,7.8854,-0.8804,7.936
18.9080,-2.9664,6.2824,-6.6345,9.606
18.9160,-5.8639,4.3544,-10.0944,12.460
18.9280,-7.7213,2.2275,-10.0984,12.906
18.9360,-9.6728,-0.6169,-8.8296,13.111
18.9660,-5.7817,-2.6916,-4.4716,7.789
18.9700,-3.4434,-4.3973,-1.9472,5.915
18.9730,-1.0746,-6.4839,-2.5766,7.059
18.9780,0.6138,-8.0514,-3.7484,8.902
18.9870,1.2327,-7.7734,-6.7193,10.349
18.9960,2.8992,-7.4816,-6.9833,10.637
19.0070,14.1954,-12.3913,0.1088,18.843
19.0160,26.0418,-20.9345,-4.1639,33.671
19.0280,14.9947,-28.4968,-19.7864,37.794
19.0360,5.0419,-14.7615,-6.9765,17.088
19.0660,5.7570,0.3842,14.9222,15.999
19.0670,4.8691,5.7113,14.2543,16.109
19.0680,2.3947,7.6242,7.6190,11.041
19.0850,2.3976,8.3960,4.8563,9.991
19.1260,2.9161,8.4505,4.2170,9.884
19.1310,3.6259,7.1917,7.3125,10.878
19.1340,3.5109,5.5982,14.1771,15.641
19.1380,3.2223,4.7170,14.5683,15.648
19.1410,2.0572,3.2624,15.2171,15.698
19.1440,1.2287,1.2493,15.3962,15.496
19.1490,0.5003,-0.9968,14.2947,14.338
19.1670,0.4634,-2.1203,12.3267,12.516
19.1690,1.9984,-1.9912,8.6161,9.066
19.1830,3.0639,-2.4383,4.5449,5.999
19.1860,2.3688,-3.4192,2.1735,4.693
19.1960,0.5557,-4.1104,0.5119,4.179
19.2080,-1.0881,-3.8685,-0.0439,4.019
19.2160,-2.4665,-2.7971,-0.0843,3.730
19.2280,-1.4784,-1.8179,2.3721,3.334
19.2370,-6.5917,-4.0674,-6.1672,9.901
19.2490,-10.1453,-4.2327,-8.5598,13.932
19.2600,-10.7623,-2.2008,-9.9131,14.797
19.2880,-9.1366,0.0730,-8.8155,12.696
19.2890,-6.7835,1.8856,-6.3163,9.459
19.2900,-5.9011,1.6407,-3.3950,7.003
19.2960,-4.5764,0.8276,-0.0137,4.651
19.3100,-2.1025,0.7101,0.3353,2.244
19.3150,0.6375,0.4448,-1.7453,1.911
19.3300,3.0012,0.5934,-3.7741,4.858
19.3350,3.8300,0.4519,-5.5892,6.791
19.3460,3.3199,0.3806,-6.7575,7.539
19.3600,1.8674,-0.3243,-6.9399,7.194
19.3670,0.6655,-1.1562,-6.1882,6.330
19.4400,-0.1283,-2.3033,-5.3523,5.828
19.4450,-0.8178,-3.0517,-5.1749,6.063
19.4510,-1.5691,-3.0375,-5.1275,6.163
19.4550,-2.5922,-2.6632,-4.6700,5.968
19.4580,-4.4076,-2.5043,-4.0381,6.481
19.4610,-6.0122,-2.7827,-2.9741,7.262
19.4640,-7.2298,-3.2244,-2.4886,8.298
19.4720,-7.8482,-3.8160,-2.7259,9.143
19.4740,-8.5336,-4.2262,-3.4549,10.130
19.4770,-8.7358,-3.8956,-4.7541,10.681
19.4800,-8.7171,-3.6878,-5.8354,11.119
19.4870,-9.8466,-5.3379,-5.9996,12.706
19.4980,-11.4550,-7.7297,-4.1398,14.426
19.5260,-10.5850,-9.1814,-2.6192,14.255
19.5270,-6.7093,-8.7885,-4.0743,11.784
19.5570,-0.8826,-7.1122,-9.1065,11.588
19.5580,2.9875,-6.8992,-11.5070,13.745
19.5590,6.6775,-6.7895,-8.1585,12.540
19.5810,8.8463,-7.2980,-0.1742,11.469
19.5820,8.9763,-6.2803,3.5872,11.528
19.5820,8.4060,-6.0462,5.3267,11.644
19.5920,8.1670,-8.2539,5.1980,12.722
19.6030,9.3617,-10.8349,2.2809,14.500
19.6180,8.0852,-12.7115,-2.4435,15.262
19.6190,6.7976,-10.1985,-1.1201,12.307
19.6440,1.2758,-6.5680,4.5082,8.068
19.6450,-3.6570,-5.6732,6.5956,9.437
19.6470,-0.8747,-3.0509,-5.1904,6.084
19.6610,1.6800,-0.8250,-4.7033,5.062
19.6660,3.0662,1.1081,2.4664,4.088
19.6880,4.6194,2.7979,7.0012,8.842
19.6880,6.1526,4.7347,8.6464,11.620
19.6970,5.5127,5.5893,9.4380,12.276
19.7170,1.5172,5.1880,8.3094,9.913
19.7220,0.4589,5.1474,6.7679,8.515
19.7280,0.7158,4.9941,5.8872,7.753
19.7360,0.5511,4.8861,5.7306,7.551
19.7480,0.4042,4.8955,5.5522,7.413
19.7720,0.5083,4.7837,5.7739,7.515
19.7730,3.0002,5.4924,6.2749,8.862
19.7760,4.3896,5.8295,6.4648,9.749
19.7870,6.3728,6.6416,6.8397,11.468
19.8030,7.3420,7.6644,7.9132,13.239
19.8090,6.5049,7.8751,8.3745,13.208
19.8150,5.2601,7.7542,8.1714,12.433
19.8270,3.5154,7.6932,7.1368,11.067
19.8360,2.0524,7.8711,5.4420,9.787
19.8480,1.4133,8.0416,3.8332,9.020
19.8900,-0.2541,7.5116,-1.0125,7.584
19.8940,-2.6573,5.9261,-6.6058,9.264
19.8980,-6.0755,3.5051,-10.9078,12.968
19.9020,-7.9700,1.4043,-10.1235,12.961
19.9190,-7.8589,-0.5263,-5.7747,9.767
19.9210,-7.9825,-0.4939,-5.8161,9.889
19.9240,-0.4077,-1.3957,-2.6452,3.018
19.9290,-0.2676,-2.8374,-2.3315,3.682
19.9350,1.0181,-4.4303,-5.2898,6.975
19.9470,2.3523,-6.9764,-13.5065,15.383
19.9620,5.2628,-13.2747,-11.0949,18.083
19.9670,25.5426,-25.1593,-7.1009,36.549
20.0010,16.9561,-30.4677,-25.2750,43.065
20.0020,0.3473,-18.9053,-6.2624,19.919
20.0030,1.7108,3.0220,23.7090,23.962
20.0410,1.6780,11.2373,19.1598,22.275
20.0420,3.3290,14.4700,9.7587,17.768
20.0430,5.4809,15.3918,5.2962,17.175
20.0440,5.8516,12.2149,5.7649,14.720
20.0740,5.0012,6.8391,10.0225,13.124
20.0780,4.5286,3.4972,12.6216,13.858
20.0810,6.3771,1.3590,14.2780,15.696
20.0830,8.1120,-0.6942,13.8459,16.062
20.0870,6.1933,-4.4209,14.1174,16.038
20.0970,2.5114,-8.1005,15.2372,17.438
20.1160,1.2522,-9.3318,14.4229,17.224
20.1190,2.7601,-8.0688,12.2145,14.897
20.1430,3.7392,-6.3310,8.4669,11.214
20.1440,3.8229,-5.0649,5.7627,8.572
20.1460,1.6985,-4.7970,4.2960,6.660
20.1550,-0.8273,-5.3618,3.9795,6.728
20.1660,-5.5162,-5.9777,-14.6669,16.771
20.1800,-8.9487,-5.9533,-11.3880,15.659
20.1870,-9.6514,-3.7928,-3.5190,10.951
20.2080,-9.8981,-1.9176,0.6833,10.105
20.2090,-10.8639,0.0106,-0.2669,10.867
20.2160,-9.9511,1.7271,-4.4315,11.029
20.2270,-7.4529,2.7357,-6.2987,10.134
20.2360,-5.8687,3.3587,-5.1989,8.529
20.2540,-4.5490,2.7237,-2.8043,5.998
20.2580,-3.1532,2.3024,-0.6382,3.956
20.2740,-1.1963,2.2724,0.9651,2.743
20.2770,0.4653,2.0238,1.6436,2.648
20.2880,1.5518,1.5533,2.4094,3.260
20.2970,1.1961,1.2481,2.7927,3.284
20.3080,0.4691,1.2589,2.7631,3.072
20.3170,-0.6162,0.9662,2.2290,2.506
20.3410,-1.7104,0.3133,1.3202,2.183
20.3510,-1.9580,-1.0003,0.7936,2.338
20.3620,-1.5356,-2.5396,1.7347,3.438
20.3650,-0.1106,-4.2317,2.0052,4.684
20.3680,1.1982,-4.6478,-8.9289,10.137
20.3810,1.2305,-4.8768,-32.9617,33.343
20.3870,0.5949,-4.5251,-31.3108,31.642
20.4290,-1.5396,-4.4022,-9.6138,10.685
20.4300,-2.4023,-3.7410,0.5845,4.484
20.4310,-6.0577,-3.2879,2.8490,7.458
20.4310,-9.8903,-3.6387,1.8416,10.698
20.4360,-12.7547,-4.0598,-3.3209,13.791
20.4480,-13.2641,-4.0429,-8.7479,16.395
20.4570,-12.9585,-4.4384,-11.5949,17.946
20.4760,-12.1451,-5.8725,-10.0794,16.840
20.4780,-9.6006,-6.6922,-6.0684,13.183
20.4870,-5.6500,-7.3636,-3.6251,9.964
20.5030,-0.2203,-9.1866,-4.8256,10.379
20.5090,5.6612,-10.2653,-4.6276,12.603
20.5290,8.3845,-10.2119,2.4146,13.432
20.5300,8.1657,-9.0225,5.3858,13.308
20.5510,8.0134,-9.5065,6.4409,14.003
20.5520,8.5836,-10.9369,4.7608,14.696
20.5740,10.3760,-11.8840,3.1051,16.079
20.5750,10.0053,-10.0416,-0.1743,14.176
20.5760,7.9616,-6.7660,-1.3710,10.538
20.5970,3.7630,-4.2373,1.1570,5.784
20.5980,-1.6649,-4.2287,2.5014,5.188
20.6260,-6.7632,-6.1064,11.6385,14.781
20.6270,-2.5414,-3.6183,-4.1253,6.047
20.6320,-0.6445,-1.0652,-4.3648,4.539
20.6370,1.4885,0.8101,1.5462,2.294
20.6500,3.7145,2.6900,7.5970,8.874
20.6570,5.3397,3.9459,8.8278,11.046
20.6760,5.0471,5.0199,8.2700,10.912
20.6820,3.8026,5.5192,7.4875,10.049
20.6880,3.7265,5.7658,6.3883,9.378
20.7160,4.0111,6.1396,6.0486,9.506
20.7210,4.0586,6.4274,5.7666,9.541
20.7240,3.6477,6.4670,6.1303,9.629
20.7340,3.8449,6.7557,5.8233,9.712
20.7380,5.3134,7.1226,6.4023,10.952
20.7470,6.3273,7.9915,7.2298,12.497
20.7560,7.1866,8.7388,7.7818,13.732
20.7830,7.9831,9.3290,7.5204,14.398
20.7840,7.3149,8.5961,9.3660,14.667
20.7870,5.7871,7.8986,9.5631,13.687
20.7960,4.3741,7.8203,8.5889,12.412
20.8070,2.5784,7.8836,6.7635,10.703
20.8160,0.5542,7.4235,4.8793,8.901
20.8300,-0.3203,6.5306,1.2880,6.664
20.8360,-2.3108,5.4278,-3.6756,6.951
20.8510,-4.0980,4.6137,-8.1212,10.200
20.8590,-5.1005,3.6751,-10.9851,12.657
20.8760,-5.6481,1.6969,-10.3659,11.926
20.8780,-5.8876,-1.2861,-5.8947,8.430
20.8910,-5.0284,-4.1312,-2.1343,6.849
20.9110,-2.6454,-7.0024,-0.8771,7.537
20.9110,0.2636,-9.9242,-2.8318,10.324
20.9190,2.3047,-14.4833,-10.1023,17.808
20.9310,9.9622,-22.1679,-6.1716,25.075
20.9360,23.9479,-30.0119,-6.5565,38.951
20.9640,14.0204,-29.9717,-35.6889,48.668
20.9650,4.7832,-21.7743,-8.6426,23.910
20.9680,7.9685,-0.1662,16.9921,18.768
20.9870,7.9051,10.1302,16.3422,20.789
20.9900,5.1230,12.4828,10.0117,16.802
21.0220,4.3122,12.6727,6.1110,14.715
21.0230,4.3425,12.3148,4.0204,13.663
21.0230,5.2139,11.4376,5.0923,13.562
21.0500,5.2624,10.6784,10.5962,15.937
21.0560,5.5781,10.0718,16.2018,19.876
21.0600,4.8632,8.4064,19.4117,21.706
21.0620,2.1950,4.8598,24.1679,24.749
21.0680,3.8277,1.9110,22.5496,22.952
21.0800,4.3264,-2.4828,17.2345,17.942
21.0870,3.8020,-4.5520,10.2878,11.875
21.1050,3.5101,-5.7910,5.1539,8.510
21.1060,2.3285,-7.4015,3.5194,8.520
21.1160,3.1126,-7.1527,2.4629,8.180
21.1330,2.9015,-5.9105,1.7670,6.817
21.1350,1.1501,-4.0114,1.7227,4.515
21.1470,-1.3358,-2.7183,3.6688,4.758
21.1560,-4.8763,-4.0623,-4.5640,7.817
21.1670,-12.1475,-6.0841,-12.1476,18.225
21.1930,-13.9009,-4.5840,-14.1268,20.342
21.1950,-11.8114,-1.6583,-13.8973,18.314
21.1970,-8.0922,-0.0367,-11.7762,14.289
21.2210,-5.5268,-1.1384,-6.4949,8.604
21.2220,-3.7241,-2.6481,-2.1948,5.069
21.2460,-1.0498,-2.9271,-5.4752,6.297
21.2470,1.2688,-1.2631,-8.1359,8.331
21.2480,2.5778,1.0929,-7.4854,7.992
21.2550,2.3294,1.7852,-5.7223,6.431
21.2670,1.5342,1.4647,-3.1832,3.825
21.3010,0.9146,0.6538,-0.6220,1.285
21.3070,0.7232,-0.8574,1.4258,1.814
21.3110,-0.4614,-2.3111,1.2636,2.674
21.3140,-1.8317,-3.1599,-0.4191,3.676
21.3180,-2.8786,-3.1716,-2.3382,4.880
21.3450,-3.8283,-2.6101,-4.5701,6.508
21.3510,-5.0172,-2.6087,-6.2854,8.455
21.3540,-5.9232,-2.9735,-7.6089,10.091
21.3570,-6.0134,-3.2701,-7.9291,10.475
21.3680,-5.2885,-3.1044,-7.1093,9.389
21.3870,-4.7227,-2.8743,-6.1003,8.233
21.3900,-4.1667,-2.1102,-5.4356,7.167
21.4230,-4.6910,-1.7508,-5.1659,7.194
21.4240,-7.2924,-2.6261,-4.5282,8.977
21.4250,-10.5330,-4.4818,-3.6515,12.015
21.4270,-12.5183,-5.7113,-1.8184,13.879
21.4360,-11.7652,-6.3348,-0.7861,13.385
21.4490,-7.7368,-5.7285,-2.0344,9.839
21.4560,-2.5700,-5.0043,-4.0338,6.922
21.4870,1.2035,-5.5452,-6.0913,8.325
21.4880,5.2985,-7.4229,-9.8686,13.437
21.4890,9.0887,-9.0647,-6.1849,14.249
21.5250,11.8462,-9.8130,0.6544,15.397
21.5290,12.1901,-9.1395,3.4635,15.625
21.5310,12.2614,-9.6559,3.6366,16.025
21.5340,9.7526,-10.0795,1.9126,14.155
21.5390,7.2808,-8.1269,0.5605,10.926
21.5530,6.2073,-3.3195,1.9180,7.296
21.5570,4.4248,0.4577,3.2995,5.539
21.5670,-0.7536,0.0703,3.8138,3.888
21.5830,-4.4714,-2.2265,5.7505,7.617
21.5870,-2.3354,-2.6339,0.6045,3.572
21.6130,-1.5788,-1.5502,-1.6042,2.733
21.6140,-0.6060,-0.0422,1.4530,1.575
21.6150,2.6629,1.7068,4.8338,5.777
21.6300,5.1392,3.1568,6.4339,8.819
21.6360,3.9271,3.3351,6.8710,8.588
21.6480,2.5442,3.3782,5.9819,7.326
21.6560,0.8255,3.3762,4.7125,5.856
21.6670,0.3343,3.4317,4.2058,5.439
21.6850,1.1142,4.0140,4.9502,6.470
21.6890,2.6934,4.9158,5.5311,7.875
21.7210,4.4350,6.1495,5.8050,9.549
21.7220,6.1914,7.8042,6.1248,11.694
21.7230,6.9502,9.2247,6.8670,13.437
21.7290,6.1800,9.7418,7.9762,14.026
21.7360,5.2505,9.4592,8.5468,13.787
21.7470,3.9567,8.8562,8.0966,12.635
21.7560,3.5719,8.5847,7.5125,11.954
21.7680,2.9577,8.1971,6.5658,10.911
21.7940,1.9260,7.7530,5.4649,9.679
21.7990,0.9472,7.4637,3.3737,8.245
21.8020,0.4330,7.2212,-0.3075,7.241
21.8080,-1.1829,5.6464,-7.3478,9.342
21.8480,-3.1768,2.9940,-13.6062,14.289
21.8520,-6.1737,-1.4123,-16.7865,17.941
21.8550,-7.6106,-5.8381,-11.5135,14.986
21.8580,-3.0963,-8.9880,-4.4010,10.476
21.8630,-0.0804,-10.6808,-4.0417,11.420
21.8770,0.7403,-11.7816,-5.4715,13.011
21.8780,-0.6763,-10.0322,-7.8370,12.748
21.9170,-3.1290,-5.0658,-10.4685,12.043
21.9370,-1.8710,0.1424,-6.6301,6.891
21.9370,3.6868,3.1568,5.0318,6.991
21.9380,12.9907,1.5286,9.4990,16.166
21.9390,21.2898,-4.7582,6.7743,22.843
21.9400,19.3555,-14.1661,8.6270,25.490
21.9480,8.0510,-17.2529,8.5883,20.886
21.9560,6.8530,-7.3076,9.1808,13.589
21.9670,3.9965,-1.1776,6.4115,7.646
21.9760,0.0595,1.2561,-3.0933,3.339
21.9930,1.7630,6.3204,-13.9736,15.437
21.9970,2.5738,7.1083,1.1398,7.645
22.0070,1.1890,6.2737,6.0756,8.814
22.0190,-0.1771,5.4820,3.4682,6.489
22.0310,-0.0448,4.7749,2.3541,5.324
22.0360,1.4308,4.1810,1.8585,4.794
22.0480,3.0508,3.0514,2.0372,4.772
22.0550,4.0041,0.5664,2.0910,4.553
22.0680,3.7735,-2.2124,2.6757,5.128
22.0760,0.6313,-5.7767,4.2451,7.197
22.0910,-2.2602,-6.5855,6.9885,9.865
22.0970,-0.1255,-4.5015,7.2670,8.549
22.1060,-0.9464,-2.3155,5.8239,6.338
22.1160,-2.7479,0.5266,4.9010,5.643
22.1280,-3.1616,2.7735,4.2444,5.975
22.1360,-3.0264,4.3325,3.2889,6.225
22.1470,-3.3406,4.9646,2.6155,6.531
22.1560,-3.3926,4.7752,2.2143,6.262
22.1670,-3.6615,3.7678,1.9130,5.591
22.1770,-3.8594,1.9817,1.8044,4.699
22.1940,-3.2391,0.5383,1.8220,3.755
22.1970,-2.5230,-1.0178,2.4892,3.687
22.2060,-2.6123,-2.1121,4.0316,5.248
22.2160,-1.5524,-3.1248,3.7833,5.147
22.2270,0.1994,-3.4386,-2.3910,4.193
22.2360,0.6126,-4.0716,-11.9978,12.685
22.2470,-0.1729,-4.5662,-19.2985,19.832
22.2590,-0.3101,-3.8408,-22.7843,23.108
22.2930,0.7036,-2.5113,-19.9874,20.157
22.2970,0.8837,-2.0001,-11.5786,11.783
22.3460,-0.6425,-2.0686,-3.6794,4.270
22.3500,-2.8040,-2.7234,-1.9604,4.373
22.3530,-4.0905,-3.5985,-3.1666,6.301
22.3560,-6.5133,-4.5530,-2.9815,8.488
22.3580,-8.9514,-5.5738,-3.1528,11.006
22.3600,-10.6579,-5.8134,-4.1023,12.815
22.3640,-11.0134,-5.2035,-5.2393,13.260
22.3670,-9.9063,-4.3739,-6.7011,12.735
22.3700,-7.8178,-3.8755,-8.8884,12.456
22.3770,-6.2280,-4.1965,-10.4003,12.828
22.3900,-6.2046,-5.4504,-9.3090,12.444
22.4260,-5.4784,-5.8296,-7.4964,10.963
22.4270,-3.7222,-6.6467,-6.1323,9.780
22.4280,-2.3711,-8.0141,-5.6307,10.077
22.4290,0.7753,-8.7549,-7.1548,11.333
22.4360,4.3275,-7.4401,-9.5400,12.849
22.4470,6.6587,-6.8206,-4.6501,10.606
22.4560,7.2293,-6.8676,-0.4878,9.983
22.4710,6.8426,-6.4637,2.1376,9.652
22.4780,6.6609,-8.2334,3.1214,11.041
22.5100,7.0681,-11.3377,2.2544,13.549
22.5150,7.0713,-13.5760,3.8196,15.777
22.5180,6.3936,-12.1548,-1.9892,13.877
22.5200,4.4925,-7.9192,-2.6643,9.487
22.5290,4.1741,-2.4234,-4.7829,6.795
22.5360,2.4618,-0.2769,-4.2016,4.878
22.5480,3.0171,0.1632,-0.0823,3.023
22.5560,2.4935,0.7816,5.8647,6.420
22.5690,2.7533,2.5308,5.6336,6.762
22.5770,1.4077,4.1254,4.1436,6.014
22.6160,0.7865,5.3949,4.4902,7.063
22.6170,0.1640,6.2267,4.3767,7.613
22.6180,0.2198,6.6235,4.4035,7.957
22.6190,0.3360,6.9128,4.3529,8.176
22.6270,0.5198,6.8579,4.7432,8.355
22.6370,0.6980,6.2071,4.3268,7.598
22.6510,1.1887,5.6992,4.3935,7.294
22.6560,2.6276,5.7002,4.7721,7.885
22.6680,4.3949,6.4814,5.5932,9.623
22.6760,5.6790,7.9120,6.9597,11.970
22.6870,6.4138,8.8323,7.6878,13.351
22.7230,6.7150,9.6581,7.6307,14.021
22.7240,6.3204,9.9320,7.2534,13.828
22.7250,5.1201,9.3886,6.0550,12.289
22.7270,3.7987,8.5771,4.6941,10.490
22.7360,2.9807,7.9199,2.7851,8.909
22.7490,2.4106,7.7158,0.8698,8.130
22.7570,1.1701,6.9132,-3.4062,7.795
22.7730,-1.9943,4.4286,-9.7612,10.903
22.7770,-6.2099,0.1123,-15.9855,17.150
22.8060,-10.6449,-5.1898,-22.2920,25.242
22.8070,-8.9829,-10.3847,-10.1282,17.062
22.8080,-1.3609,-10.9065,-5.5855,12.329
22.8160,1.6795,-11.3779,-6.6635,13.292
22.8270,0.3592,-10.9780,-8.7491,14.043
22.8440,0.6274,-7.2394,-11.3056,13.439
22.8470,5.3276,-4.6760,-6.2210,9.431
22.8560,16.3365,-6.9877,1.9017,17.870
22.8710,19.4813,-12.6058,2.8491,23.378
22.8780,11.6258,-11.9032,6.8891,18.008
22.9070,4.6892,-4.5707,9.6872,11.693
22.9180,3.8372,0.6966,8.9828,9.793
22.9190,2.7608,3.7934,6.0563,7.661
22.9190,2.3578,5.5036,2.5420,6.505
22.9390,1.9097,6.3375,0.9792,6.691
22.9400,2.0419,6.6055,0.4988,6.932
22.9670,2.6810,6.6273,1.2382,7.255
22.9680,3.0390,5.8159,1.9609,6.849
22.9680,3.1955,4.7510,3.8275,6.887
22.9760,2.7682,3.3085,6.0835,7.458
22.9870,2.5007,1.2741,6.6741,7.240
23.0000,1.4495,-0.8509,6.7485,6.955
23.0070,0.7256,-2.6788,7.0993,7.622
23.0280,0.0501,-4.1007,6.1037,7.353
23.0300,0.4704,-4.0674,3.6503,5.485
23.0360,0.2738,-2.9847,2.1823,3.708
23.0480,-0.4031,-1.0656,1.1792,1.640
23.0560,-1.5923,0.9168,1.0629,2.123
23.0700,-2.4319,2.2641,1.1291,3.509
23.0780,-3.1924,2.2546,1.0549,4.048
23.0960,-3.5443,2.1765,3.2760,5.294
23.0970,-4.4659,1.7259,2.8323,5.563
23.1060,-5.8648,0.2422,-0.6566,5.906
23.1160,-5.7296,-0.7265,-3.1969,6.601
23.1270,-3.6432,-0.5371,-6.8207,7.751
23.1360,-1.9535,-0.6482,-10.5556,10.754
23.1480,-0.5277,-1.2350,-12.1215,12.196
23.1560,0.2710,-1.9960,-10.3204,10.515
23.1670,1.0551,-2.1653,-7.8428,8.204
23.1760,0.9699,-2.3949,-5.4935,6.071
23.2130,0.4677,-2.8878,-5.2703,6.028
23.2180,-0.8676,-3.1324,-8.0367,8.669
23.2220,-2.0543,-2.7280,-11.1089,11.622
23.2250,-2.5974,-2.8313,-11.4432,12.071
23.2300,-3.4380,-3.5404,-8.4702,9.803
23.2850,-4.8775,-4.4476,-3.6304,7.533
23.2940,-6.6097,-4.9813,-1.2677,8.373
23.2970,-8.2603,-5.0671,-1.9824,9.891
23.3000,-9.6813,-5.0883,-3.6535,11.531
23.3020,-10.6162,-4.7991,-6.4859,13.334
23.3040,-10.6438,-4.2345,-8.1781,14.075
23.3080,-9.6514,-3.4088,-9.3251,13.847
23.3090,-8.3441,-2.6517,-9.7696,13.119
23.3160,-7.4601,-2.5535,-10.1063,12.818
23.3270,-7.8343,-3.1793,-8.8350,12.229
23.3360,-7.1485,-4.5008,-6.0639,10.399
23.3750,-3.9773,-5.6054,-4.4265,8.175
23.3760,0.2091,-7.3984,-5.5514,9.252
23.3770,4.4891,-9.3644,-9.2767,13.925
23.3780,6.2420,-8.4787,-2.5587,10.835
23.3880,5.0975,-9.2699,2.9001,10.969
23.4060,5.1723,-10.0142,2.1975,11.483
23.4110,6.7983,-11.5082,0.8103,13.391
23.4390,9.8724,-14.0822,-2.4581,17.373
23.4400,14.6962,-15.9633,-7.2921,22.891
23.4400,15.0387,-13.1119,-9.7837,22.222
23.4690,10.5778,-8.7113,-5.5792,14.795
23.4690,4.4604,-5.6532,6.6597,9.808
23.4700,1.7485,-1.3947,7.4111,7.741
23.4760,0.4635,0.3385,8.7410,8.760
23.4870,-2.2708,1.1952,-1.4969,2.971
23.5180,-3.0730,1.8576,-3.2501,4.843
23.5190,0.8150,3.4927,2.5167,4.381
23.5200,3.1439,5.3080,4.6975,7.754
23.5270,2.7410,6.3759,5.0892,8.606
23.5500,1.8360,6.5204,4.2499,7.997
23.5540,0.6059,5.8213,3.7331,6.942
23.5590,-0.3971,5.3141,3.1423,6.186
23.5770,-0.2153,5.6952,3.3000,6.586
23.5880,-0.0958,5.6336,3.5361,6.652
23.5940,1.6997,7.6989,5.1806,9.434
23.6370,3.7217,8.9749,6.4011,11.635
23.6380,4.8654,10.0695,7.7142,13.586
23.6380,5.5032,10.6232,8.1204,14.460
23.6390,5.6748,10.4892,8.5717,14.687
23.6400,4.8978,9.7491,8.7625,13.993
23.6480,3.4944,8.6872,7.6134,12.068
23.6560,3.1403,8.3997,5.8013,10.680
23.6670,3.4868,8.9478,3.2790,10.148
23.6760,3.5245,9.2619,0.0259,9.910
23.6870,0.1890,7.1529,-6.6080,9.740
23.7230,-3.6080,3.7646,-12.0449,13.125
23.7260,-6.4989,0.0024,-17.6761,18.833
23.7310,-7.3937,-2.6253,-15.0314,16.956
23.7330,-3.8584,-4.6923,-5.5227,8.210
23.7390,0.5671,-6.2817,-3.7449,7.335
23.7490,2.2326,-8.7117,-5.4304,10.506
23.7560,1.7346,-10.0447,-8.7337,13.423
23.7700,1.6651,-8.5241,-12.2024,14.978
23.7760,7.5036,-7.6876,-5.3872,12.018
23.8060,18.0365,-10.3238,3.7823,21.123
23.8070,23.9846,-16.5277,-1.8255,29.185
23.8080,13.6017,-15.2795,-1.5929,20.518
23.8470,4.8470,-5.6307,7.8048,10.776
23.8480,1.9056,0.0149,11.9094,12.061
23.8490,0.6136,2.7300,7.2930,7.811
23.8490,1.3687,4.7237,2.1451,5.365
23.8840,1.3188,6.0906,0.0776,6.232
23.8860,1.7027,6.3106,0.2623,6.542
23.8890,2.1320,5.9547,2.6066,6.841
23.8910,1.3938,5.5084,4.6636,7.351
23.9050,1.2662,5.1006,6.1149,8.063
23.9130,0.5909,4.0092,9.3136,10.157
23.9160,0.4616,2.3697,11.1725,11.430
23.9270,0.8148,0.9216,10.7869,10.857
23.9360,1.6535,-0.4867,8.0238,8.207
23.9640,1.5570,-1.8606,4.9993,5.557
23.9650,-0.7622,-4.8456,2.4987,5.505
23.9660,-1.7497,-5.8597,1.4476,6.284
23.9750,-0.7623,-4.2262,0.7496,4.359
23.9870,-0.7179,-1.9448,0.4493,2.121
23.9960,-1.8862,-0.0781,0.6640,2.001
24.0070,-2.5261,1.1706,3.4769,4.454
24.0330,-4.3903,1.1781,1.3498,4.742
24.0350,-7.3735,0.0776,-3.5908,8.202
24.0360,-8.3499,-0.3070,-6.0618,10.323
24.0490,-5.9554,1.4161,-7.7893,9.907
24.0560,-4.1531,1.7169,-9.5622,10.566
24.0680,-3.2913,0.0714,-10.3637,10.874
24.0760,-1.6787,-0.8039,-8.4956,8.697
24.0880,0.1033,-1.1999,-5.6043,5.732
24.0970,0.8641,-1.1172,-4.3237,4.549
24.1340,0.2862,-1.0038,-3.5600,3.710
24.1410,-0.5323,-1.1180,-3.2344,3.463
24.1490,-0.0518,-2.0809,-4.5302,4.986
24.1540,1.1791,-2.5886,-8.4004,8.869
24.1570,1.5311,-2.4141,-12.0894,12.423
24.1610,-0.2738,-2.6850,-10.7656,11.099
24.1710,-3.8592,-4.3920,-5.8629,8.280
24.1780,-6.0466,-5.6710,-1.5755,8.438
24.1880,-6.9943,-6.0250,-0.0566,9.232
24.1990,-8.5426,-6.3456,-1.7359,10.782
24.2100,-10.7548,-6.3957,-4.3103,13.234
24.2580,-11.2163,-5.6717,-6.6580,14.223
24.2590,-9.8662,-4.3883,-8.3476,13.649
24.2600,-8.3112,-3.5706,-8.2782,12.262
24.2610,-7.5204,-3.4362,-8.0235,11.521
24.2620,-8.2667,-4.0303,-7.6416,11.957
24.2950,-8.8618,-4.7343,-6.5031,11.968
24.2950,-6.4980,-4.9636,-5.5952,9.908
24.2960,-2.3679,-5.0845,-6.4661,8.560
24.2960,1.1546,-5.8785,-9.3141,11.074
24.3250,2.9710,-6.7524,-5.1087,8.973
24.3290,3.8076,-7.9358,4.1288,9.722
24.3330,3.5842,-7.8081,4.7127,9.799
24.3450,3.9998,-8.1284,3.4416,9.691
24.3780,5.4344,-10.1896,2.1860,11.753
24.3830,7.8037,-13.0962,-0.5864,15.256
24.3860,9.3515,-15.3762,-5.1619,18.722
24.3890,6.7337,-14.2513,-2.5799,15.972
24.3910,2.8673,-10.7413,6.2326,12.745
24.4020,1.4516,-5.7579,5.8960,8.368
24.4340,3.0007,-0.9333,-7.6065,8.230
24.4340,5.2837,2.2340,-8.6206,10.355
24.4350,6.1183,3.5378,-0.2888,7.073
24.4670,3.3781,4.4890,9.1844,10.766
24.4680,3.2745,5.9110,8.8360,11.124
24.4690,3.2247,6.6957,7.6948,10.698
24.4690,1.3781,6.9972,7.1221,10.079
24.4770,-1.5344,6.7328,5.0985,8.584
24.4880,-2.2689,6.2133,4.6956,8.112
24.4960,-1.5021,5.3135,4.8693,7.362
24.5110,-0.5040,4.8384,4.7987,6.833
24.5480,1.5763,5.3024,4.8538,7.359
24.5490,4.1262,6.4485,5.2904,9.306
24.5500,7.6377,8.6095,6.0086,12.983
24.5500,8.6550,10.1471,6.4638,14.821
24.5560,8.7519,11.1536,7.9565,16.257
24.5690,6.9829,10.7805,8.9877,15.677
24.5780,5.7354,9.7532,8.6200,14.224
24.5930,4.1563,8.8221,7.0339,12.024
24.5960,2.4593,7.6174,4.5691,9.217
24.6340,1.5555,6.6212,0.5174,6.821
24.6370,0.0898,5.4517,-5.0342,7.421
24.6400,-3.2370,2.5857,-13.5279,14.148
24.6410,-6.7690,-1.0766,-17.8906,19.159
24.6530,-9.8098,-5.5828,-20.5180,23.418
24.6580,-7.0296,-8.5729,-10.6240,15.355
24.6690,0.7046,-9.1983,-3.2263,9.773
24.6760,2.4465,-10.5349,-3.8355,11.475
24.6890,0.1712,-10.3257,-5.8553,11.872
24.6960,-1.4648,-6.9370,-8.3294,10.938
24.7290,1.3679,-2.7964,-2.5449,4.021
24.7300,7.9031,-2.3124,7.1520,10.907
24.7310,15.4325,-4.9567,5.3410,17.066
24.7710,18.5435,-8.8109,0.6017,20.539
24.7760,15.0880,-10.4212,-0.1592,18.338
24.7830,6.1629,-7.8821,-0.0360,10.006
24.7870,3.5928,-1.8417,7.1269,8.191
24.7910,2.7913,1.7189,7.4091,8.102
24.7930,2.2296,3.9717,4.5531,6.440
24.8010,1.7504,4.8436,3.0639,5.993
24.8070,1.3343,5.3021,3.1712,6.321
24.8210,0.1856,5.5316,4.5692,7.177
24.8270,-0.3279,5.5908,7.0094,8.972
24.8640,0.3264,5.6391,7.2713,9.208
24.8650,0.1799,5.0972,7.8832,9.389
24.8660,0.1356,3.6480,8.4335,9.190
24.8670,0.6378,1.3498,8.4121,8.544
24.8760,0.2873,-1.6848,6.9889,7.195
24.8880,-0.6509,-4.8295,4.2032,6.435
24.9030,-1.3455,-6.6457,2.6318,7.273
24.9180,0.1507,-5.6273,1.9497,5.957
24.9200,0.0495,-2.9303,1.5716,3.325
24.9270,-1.3681,-0.6463,1.7880,2.342
24.9360,-1.8443,1.8120,5.0361,5.661
24.9460,-3.4533,1.6931,1.3945,4.091
24.9560,-5.0844,0.6957,-4.1793,6.618
24.9710,-5.2983,0.6851,-6.8961,8.723
24.9760,-4.1214,1.3339,-7.6198,8.765
25.0040,-2.7176,2.0148,-7.8724,8.569
25.0050,-2.0889,1.0439,-7.5403,7.894
25.0100,-1.4488,-0.4309,-5.5354,5.738
25.0170,-0.2122,-0.8479,-3.1374,3.257
25.0270,0.8269,-0.7038,-2.6286,2.844
25.0370,0.3876,-0.7222,-3.3108,3.411
25.0470,-0.8734,-0.9968,-3.7502,3.977
25.0590,-1.9813,-1.1599,-3.8731,4.502
25.0880,-1.7146,-1.8348,-4.0700,4.782
25.0930,-0.5455,-3.0314,-6.1020,6.835
25.0960,-0.1812,-3.4254,-10.0417,10.611
25.1010,-0.4402,-2.8131,-11.6866,12.028
25.1400,-1.3541,-3.0100,-8.8992,9.492
25.1430,-3.1294,-4.0916,-4.6410,6.934
25.1460,-5.3700,-5.0045,-1.8236,7.564
25.1500,-7.8493,-5.5939,-1.8905,9.822
25.1530,-9.7059,-5.7003,-4.2458,12.030
25.1590,-10.7388,-5.2916,-7.3855,14.067
25.1730,-10.5585,-4.4508,-8.6579,14.361
25.1760,-9.6009,-3.6308,-9.0137,13.660
25.2150,-9.3852,-3.9212,-8.4858,13.246
25.2160,-10.1399,-5.3349,-6.6378,13.242
25.2170,-8.7772,-6.1684,-5.1446,11.898
25.2170,-5.7723,-6.3883,-5.2883,10.104
25.2540,-1.8524,-7.3258,-8.0208,11.020
25.2550,2.2650,-8.7333,-6.9909,11.414
25.2560,5.3597,-8.4219,2.0074,10.183
25.2560,6.0067,-7.7572,3.9782,10.587
25.2710,5.4634,-7.1193,3.2946,9.560
25.2760,5.7740,-8.4692,3.2428,10.751
25.2950,7.5030,-10.8194,0.6372,13.182
25.2990,9.7119,-13.2139,-3.6864,16.808
25.3070,8.4037,-13.1142,-3.8149,16.036
25.3400,5.1084,-10.1046,3.0989,11.739
25.3410,1.9227,-6.0290,7.8905,10.115
25.3420,2.1066,-2.5212,-1.8730,3.782
25.3760,0.7030,-0.1576,-3.8229,3.890
25.3770,2.1672,1.1282,-1.7513,3.006
25.3780,2.5161,2.7196,5.0268,6.245
25.3790,2.6637,4.1889,8.0553,9.462
25.4160,2.8645,4.1329,8.3288,9.729
25.4220,2.3542,5.5434,7.4951,9.615
25.4230,1.4350,5.9647,6.3728,8.846
25.4250,1.0843,6.1390,5.5026,8.315
25.4300,0.6019,5.9790,5.5805,8.201
25.4430,0.7358,5.8701,4.8097,7.625
25.4470,1.6427,5.8858,4.8516,7.802
25.4820,3.7680,6.7115,5.3596,9.379
25.4830,6.1897,7.7974,6.4791,11.878
25.4840,7.7670,9.2391,7.2618,14.086
25.4880,7.5677,10.0890,8.2416,15.066
25.4960,7.0775,10.5895,8.2763,15.190
25.5070,5.2093,10.3241,7.6110,13.844
25.5160,3.4359,9.4164,6.7346,12.076
25.5780,2.2813,8.2924,5.3253,10.116
25.5820,1.3115,7.2720,2.9741,7.965
25.5860,-0.0846,6.2013,-0.7757,6.250
25.5900,-3.1335,4.2109,-7.9349,9.514
25.5920,-5.3579,2.1634,-12.5216,13.790
25.5940,-7.1689,-0.2542,-17.8989,19.283
25.5970,-6.3728,-3.4974,-13.5846,15.407
25.6000,-0.7100,-6.2062,-4.7496,7.847
25.6080,2.8337,-8.4216,-2.5678,9.249
25.6170,3.5471,-10.1838,-3.3283,11.286
25.6320,1.8893,-9.0726,-8.3147,12.451
25.6780,3.7115,-6.8444,-11.4610,13.855
25.6790,10.1929,-9.0447,-2.0317,13.778
25.6800,19.9957,-14.2221,3.7739,24.826
25.6800,15.2205,-16.4972,4.5633,22.905
25.6810,4.9475,-10.1318,9.0298,14.445
25.7130,2.3152,-1.0866,11.4330,11.716
25.7140,1.9945,1.7464,8.0143,8.441
25.7140,2.0152,3.8401,3.0096,5.279
25.7450,1.9429,6.2318,-0.8519,6.583
25.7460,1.2895,5.9981,1.1317,6.239
25.7470,0.9656,5.6639,1.4217,5.919
25.7470,1.6779,5.3370,2.1874,6.007
25.7750,2.3427,5.1313,3.5715,6.676
25.7760,1.8303,4.5956,7.3451,8.856
25.7770,2.1788,3.4216,10.6973,11.441
25.8020,2.8279,1.2523,11.7451,12.145
25.8030,0.9214,-2.0176,12.6933,12.886
25.8190,-2.8309,-6.5488,10.5744,12.756
25.8200,-1.4055,-6.1234,6.6280,9.132
25.8270,0.9555,-3.9764,4.0492,5.755
25.8550,1.4165,-1.9584,2.3843,3.395
25.8560,0.4100,-0.0129,0.9733,1.056
25.8570,-0.9512,1.3810,0.0940,1.680
25.8660,-2.1220,2.3651,0.7980,3.276
25.8760,-2.6565,2.7037,2.7549,4.686
25.8900,-3.4889,2.0507,-2.7456,4.890
25.9010,-4.2476,1.2562,-6.7956,8.112
25.9250,-4.1968,0.8027,-8.2234,9.267
25.9260,-2.7882,0.9673,-8.5797,9.073
25.9270,-1.1032,0.3921,-8.3381,8.420
25.9360,-0.2260,-0.6948,-6.5518,6.592
25.9470,0.4470,-1.5109,-3.9524,4.255
25.9560,0.6538,-1.4067,-3.0377,3.411
25.9690,-0.0522,-1.0096,-3.1517,3.310
26.0050,-1.0900,-0.9203,-3.2279,3.529
26.0080,-2.1143,-1.2678,-3.4047,4.203
26.0120,-2.6628,-2.2807,-4.3861,5.615
26.0150,-3.4237,-3.7259,-7.0271,8.659
26.0190,-3.3955,-4.2786,-9.7845,11.206
26.0700,-3.1315,-3.9790,-9.9333,11.149
26.0730,-3.1413,-3.8917,-6.5709,8.258
26.0750,-3.5165,-4.0604,-3.6477,6.493
26.0780,-5.1901,-4.4933,-2.2711,7.231
26.0790,-7.2768,-5.0624,-2.5787,9.232
26.0810,-9.4188,-5.5042,-4.3700,11.752
26.0880,-10.6521,-5.4677,-6.3495,13.553
26.0960,-11.2505,-5.4457,-7.7042,14.683
26.1120,-12.2553,-6.5960,-7.1964,15.668
26.1160,-13.6992,-8.9636,-4.9315,17.098
26.1600,-12.4725,-9.9887,-2.9212,16.244
26.1610,-7.0018,-8.0721,-4.8729,11.744
26.1620,-0.9429,-5.7486,-10.0912,11.652
26.1620,6.3318,-5.7396,-14.5596,16.882
26.1670,11.0394,-6.2502,-8.6447,15.351
26.1780,12.5845,-6.8244,0.7807,14.337
26.2250,9.4249,-6.5277,2.8707,11.819
26.2260,5.9630,-7.3584,3.7487,10.186
26.2270,6.1238,-8.6660,2.0845,10.814
26.2280,8.8735,-9.5307,0.3661,13.027
26.2280,9.7904,-8.9979,-1.7704,13.414
26.2660,6.6998,-6.1415,0.8158,9.125
26.2720,3.1480,-3.7423,1.6357,5.157
26.2750,-0.2667,-2.6215,3.4829,4.367
26.2780,-1.1448,-1.8572,5.1951,5.635
26.2800,-3.8258,-2.8753,7.6690,9.040
26.2890,-2.9311,-1.7467,1.1599,3.604
26.2970,-0.8511,0.6989,0.9439,1.450
26.3100,1.1955,3.4479,5.5375,6.632
26.3160,2.7562,5.4285,7.2384,9.458
26.3570,2.7131,6.4351,6.6172,9.621
26.3580,0.9541,6.5398,6.2277,9.081
26.3590,-0.7484,6.5001,6.0022,8.879
26.3590,-1.2062,6.4919,5.6594,8.696
26.3670,-0.9041,6.1865,5.9516,8.632
26.3760,0.3877,6.2221,6.5642,9.053
26.3930,2.6731,6.2856,7.6275,10.239
26.3960,5.4937,6.9430,8.0608,11.973
26.4340,8.2251,7.5248,8.7295,14.159
26.4380,8.6190,7.7367,8.5759,14.411
26.4410,7.7431,8.0666,8.2269,13.882
26.4420,6.8274,8.5601,7.3020,13.161
26.4490,4.3788,8.6257,5.9927,11.379
26.4570,3.6248,8.6545,3.7576,10.107
26.4670,2.7397,7.8993,-0.1943,8.363
26.4780,1.0003,6.0664,-7.8456,9.968
26.5270,-3.1245,1.9489,-11.6645,12.232
26.5280,-5.9113,-1.4639,-14.0171,15.283
26.5290,-5.8129,-3.4139,-8.3871,10.760
26.5300,-1.5936,-3.6617,-4.8235,6.262
26.5310,1.2210,-3.3837,-4.5674,5.814
26.5400,2.1912,-3.1890,-5.0378,6.352
26.5470,1.4169,-3.0033,-5.9758,6.836
26.5600,0.9823,-1.9823,-9.3009,9.560
26.5670,0.9852,-0.1239,-6.2853,6.363
26.5810,5.1553,0.6149,5.6172,7.649
26.6010,18.4631,-3.3350,8.7165,20.688
26.6040,26.2246,-15.1077,1.9153,30.326
26.6580,18.3027,-25.5858,-0.5466,31.463
26.6600,-0.8333,-18.6880,15.0352,24.000
26.6610,-3.9179,-8.5968,17.9355,20.272
26.6620,-0.8091,-1.0436,8.1488,8.255
26.6630,1.3694,3.9998,0.8530,4.313
26.6630,0.8558,7.3258,-4.1069,8.442
26.6990,-1.1380,5.5698,1.6431,5.918
26.7000,-1.5210,4.9331,2.6497,5.803
26.7000,0.0223,5.1575,3.0161,5.975
26.7010,1.9566,5.0828,3.4661,6.456
26.7320,2.9473,4.0434,4.5069,6.734
26.7330,3.1977,1.8465,6.0546,7.092
26.7340,2.3264,-0.8838,7.3071,7.719
26.7360,0.2822,-4.3367,7.3365,8.527
26.7470,-1.4726,-6.3866,7.0795,9.648
26.7770,-0.0126,-4.9712,5.8614,7.686
26.7780,1.0892,-2.5877,4.5142,5.316
26.7790,0.8598,-0.0356,2.7652,2.896
26.7890,-0.1909,1.9079,1.6537,2.532
26.7960,-1.0909,3.5281,0.6897,3.757
26.8090,-1.5874,4.4875,0.2313,4.766
26.8160,-1.9951,4.9030,-0.0519,5.294
26.8440,-2.3592,4.6749,-0.0534,5.237
26.8450,-2.1128,4.0975,0.1885,4.614
26.8470,-1.9939,3.0787,0.4410,3.694
26.8560,-2.3330,1.3424,0.9318,2.848
26.8670,-2.6227,-0.4672,1.3861,3.003
26.8770,-3.9001,-3.1896,6.8870,8.533
26.9280,-3.0379,-5.0341,1.0291,5.969
26.9510,-2.0908,-5.0266,-7.3297,9.130
26.9550,-2.8738,-5.2430,-15.1746,16.310
26.9580,-3.4162,-5.1560,-19.8246,20.767
26.9620,-2.3722,-4.1796,-20.3652,20.925
26.9650,-0.6886,-2.8035,-15.6251,15.890
26.9690,-0.1670,-1.8942,-6.6666,6.932
26.9710,-0.6530,-2.2286,-2.3671,3.316
26.9740,-2.2230,-2.8342,-1.9089,4.077
26.9760,-4.6398,-3.9720,-2.6366,6.653
26.9930,-7.2480,-5.1990,-3.4544,9.565
26.9960,-9.4449,-6.4736,-4.8663,12.442
27.0390,-11.2296,-6.5958,-5.7068,14.219
27.0400,-11.3211,-5.5901,-5.9893,13.975
27.0410,-10.2230,-4.1345,-7.4045,13.283
27.0420,-9.0414,-2.9482,-9.2937,13.297
27.0470,-7.4177,-1.9766,-11.9033,14.164
27.0590,-6.9847,-2.0912,-11.7406,13.820
27.0670,-5.4582,-3.1006,-10.1110,11.901
27.0770,-3.0628,-5.2960,-7.1268,9.393
27.1000,0.0154,-8.8891,-4.1881,9.826
27.1030,2.6276,-9.9648,1.1148,10.365
27.1400,2.4309,-8.2745,5.5504,10.256
27.1400,1.2084,-8.2316,5.7092,10.090
27.1410,2.6743,-9.6522,3.8299,10.723
27.1410,4.5867,-12.0095,2.3110,13.062
27.1470,6.7832,-16.3148,-3.6270,18.037
27.1590,8.1827,-16.6897,-8.4168,20.405
27.1670,4.9393,-14.6287,-0.5047,15.448
27.2030,-0.6530,-10.9978,11.7584,16.113
27.2040,3.1357,-4.1435,-1.8668,5.521
27.2040,5.7517,0.8065,-10.7519,12.220
27.2100,6.8932,3.2329,-6.1305,9.775
27.2170,4.5393,3.6027,4.3002,7.216
27.2340,2.7088,4.1702,10.3460,11.479
27.2400,3.3631,5.3725,7.3585,9.712
27.2750,0.4937,5.6289,5.6961,8.023
27.2760,-1.0658,6.1620,5.3186,8.209
27.2770,-0.2740,6.5532,4.9993,8.247
27.2780,1.4899,6.8043,5.8075,9.069
27.2860,1.5176,6.6869,6.3343,9.335
27.2960,1.2276,6.6088,5.8054,8.882
27.3110,2.1407,6.4825,5.6299,8.849
27.3160,4.3659,7.0602,5.6183,10.024
27.3670,6.9411,8.1777,6.2793,12.429
27.3700,8.2985,9.4635,7.3283,14.565
27.3730,8.4887,10.3659,8.0980,15.655
27.3760,7.8797,10.8622,8.2362,15.745
27.3780,6.2930,10.5658,7.3960,14.351
27.3800,4.8083,9.2559,5.8820,11.975
27.3900,3.9492,7.5978,4.1851,9.531
27.4010,2.5826,6.0857,0.8222,6.662
27.4460,-0.2293,4.1148,-4.3578,5.998
27.4470,-3.1146,1.6848,-10.9167,11.477
27.4480,-6.6565,-1.2282,-16.1946,17.552
27.4480,-10.9264,-4.8197,-17.7366,21.382
27.4490,-8.2777,-7.1256,-7.8626,13.458
27.4560,-3.1336,-7.7164,-4.5268,9.479
27.4670,-0.2321,-8.9602,-5.6025,10.570
27.4800,0.5418,-10.1019,-5.5652,11.546
27.4890,1.1924,-8.6598,-7.1034,11.264
27.5070,1.2730,-4.5742,-9.7042,10.803
27.5130,2.7007,-1.0286,-3.5472,4.575
27.5160,9.6530,-1.1106,6.6732,11.787
27.5590,16.9191,-4.8299,4.8199,18.243
27.5600,17.0571,-7.7967,6.1677,19.743
27.5610,10.5274,-7.2152,6.2995,14.233
27.5620,4.0267,-4.6078,6.2928,8.778
27.5670,2.1833,-0.6322,7.9499,8.268
27.5820,1.9849,1.7729,6.7240,7.232
27.5880,2.6720,3.9066,3.3003,5.770
27.6030,2.4292,4.3370,2.2198,5.444
27.6100,1.5039,4.2397,3.2967,5.577
27.6390,1.7103,4.2719,3.4508,5.752
27.6400,1.6733,3.9423,3.9592,5.832
27.6410,2.0441,3.3790,4.5196,6.002
27.6470,3.0260,2.1862,4.4246,5.789
27.6560,2.1177,0.1602,4.6843,5.143
27.6660,-0.0300,-2.8383,4.8449,5.615
27.6770,-0.1785,-2.8447,4.6210,5.429
27.6870,0.1555,-4.0627,4.7639,6.263
27.7120,0.6311,-2.3062,4.6279,5.209
27.7130,0.4799,-0.3703,4.1284,4.173
27.7160,-0.4270,1.3788,2.9528,3.287
27.7270,-1.3697,2.6185,1.5000,3.314
27.7360,-2.0806,3.3279,0.6029,3.971
27.7470,-2.9868,3.1701,0.2356,4.362
27.7580,-3.6947,2.3353,-0.3066,4.382
27.7670,-4.3538,1.2300,-1.2328,4.689
27.7760,-4.7270,0.0967,-2.6155,5.403
27.7870,-4.8044,-0.6787,-3.9110,6.232
27.7960,-4.5930,-1.5480,-5.5671,7.381
27.8420,-2.9960,-1.7307,-7.5759,8.329
27.8500,-1.0193,-1.7667,-8.8102,9.043
27.8560,-0.3647,-2.2670,-8.4077,8.716
27.8630,-0.3722,-2.7929,-7.1972,7.729
27.8690,-0.4260,-2.6469,-5.7781,6.370
27.8730,-0.1619,-1.9597,-5.6452,5.978
27.8760,0.1911,-1.7318,-7.9584,8.147
27.8800,0.0447,-2.1414,-11.4178,11.617
27.8890,-0.7020,-2.9026,-11.8840,12.253
27.9050,-2.2029,-3.9455,-8.8554,9.942
27.9180,-4.6366,-4.8464,-3.7062,7.663
27.9190,-6.3528,-5.1411,-1.6675,8.341
27.9690,-8.0427,-5.3831,-1.5302,9.798
27.9700,-10.3269,-5.6237,-3.5119,12.272
27.9710,-11.6595,-5.2986,-6.1204,14.194
27.9720,-11.6065,-4.3317,-8.0344,14.766
27.9730,-10.3220,-3.0623,-9.0479,14.064
27.9820,-8.8719,-2.2327,-9.6043,13.264
27.9870,-9.4980,-2.9877,-8.8207,13.302
28.0260,-10.3932,-5.2808,-6.9683,13.582
28.0280,-7.4258,-6.7218,-5.9376,11.644
28.0280,-1.6537,-7.1699,-8.4605,11.213
28.0290,3.8933,-9.0652,-7.7268,12.532
28.0630,6.8633,-8.8451,-0.2067,11.197
28.0660,5.3204,-8.3089,4.7920,10.968
28.0690,3.5156,-8.3632,5.9379,10.843
28.0710,4.1450,-9.9926,4.5362,11.731
28.0770,6.3590,-12.2017,0.9487,13.792
28.0870,8.4295,-14.1339,-7.0207,17.892
28.1040,8.1989,-12.5565,-8.8382,17.407
28.1460,6.4808,-9.6728,-3.2058,12.076
28.1470,1.7385,-8.0010,8.5482,11.837
28.1470,3.9339,-3.3034,4.2003,6.636
28.1480,4.9717,0.3399,-5.1179,7.143
28.1480,2.6691,2.2188,-2.2772,4.151
28.1610,3.5288,3.7284,1.1409,5.259
28.1670,2.3377,5.5977,8.8173,10.702
28.2070,2.3426,6.9409,9.0329,11.630
28.2080,2.6800,7.3426,7.3246,10.712
28.2090,0.8519,6.6719,6.0530,9.049
28.2100,-0.4902,5.9922,3.9974,7.220
28.2170,-0.9688,5.2651,3.8727,6.607
28.2370,-0.2636,4.6575,3.9439,6.109
28.2460,0.6245,4.6964,4.4422,6.495
28.2560,3.1680,5.7608,5.2563,8.417
28.2620,5.6191,7.7311,5.9451,11.256
28.2860,7.8390,9.9253,6.5669,14.251
28.2890,8.4909,11.3576,6.9241,15.781
28.2930,7.8053,11.7478,8.2809,16.356
28.2970,6.1952,11.2950,8.5886,15.483
28.3070,4.9634,10.6527,7.5947,13.993
28.3160,3.4677,9.3887,5.6803,11.508
28.3660,2.5965,8.7617,2.6970,9.528
28.3680,1.2139,7.3044,-1.9196,7.649
28.3680,-2.0863,4.5097,-9.8412,11.024
28.3690,-5.9802,-0.0310,-16.2584,17.323
28.3700,-10.0946,-5.0211,-29.5012,31.582
28.3850,-9.4599,-11.5763,-12.6448,19.580
28.3900,-1.6533,-13.3057,-1.5069,13.492
28.4270,3.1511,-13.8049,-4.5253,14.866
28.4280,0.9578,-12.9179,-6.1641,14.345
28.4290,0.0977,-7.4951,-8.2054,11.114
28.4290,2.5509,-1.2365,-9.7945,10.196
28.4360,10.8957,0.0078,-1.8744,11.056
28.4640,20.6082,-3.5991,3.8291,21.268
28.4650,24.9143,-9.7982,6.4858,27.546
28.5050,17.8334,-10.1409,8.0525,22.039
28.5060,7.4122,-4.5348,8.7209,12.311
28.5070,2.4513,-0.9550,11.0262,11.336
28.5070,-0.2062,0.5541,9.4621,9.481
28.5080,0.3870,3.1079,3.7622,4.895
28.5180,0.2859,4.8315,1.5430,5.080
28.5410,-0.8692,5.3895,2.3447,5.941
28.5420,-1.4102,5.7896,4.2496,7.319
28.5480,-1.0025,5.4602,5.8174,8.041
28.5560,1.5046,4.8821,5.8944,7.800
28.5810,2.4027,3.7410,5.3632,6.966
28.5820,2.3977,1.7107,5.3728,6.127
28.5870,1.5632,-0.9948,5.4131,5.721
28.5960,-1.6452,-5.3450,5.9477,8.164
28.6120,-4.1843,-8.9045,5.8768,11.460
28.6160,-1.5906,-7.2272,5.3665,9.141
28.6530,-0.1808,-4.2728,3.0440,5.249
28.6540,-0.4470,-1.5070,1.2691,2.020
28.6550,-1.8571,1.8233,0.8867,2.749
28.6560,-3.1158,4.0651,0.4590,5.142
28.6670,-4.6341,3.9624,-1.4644,6.271
28.6870,-4.6541,3.9123,-1.7883,6.338
28.6880,-4.6891,1.7084,-5.1059,7.140
28.7170,-2.8478,2.2345,-5.6162,6.682
28.7180,-1.0999,2.8371,-6.0880,6.806
28.7190,-0.5361,2.1661,-6.1255,6.519
28.7280,-0.1326,0.8786,-4.6584,4.742
28.7360,0.6951,0.5293,-4.1208,4.212
28.7530,0.7862,-0.4368,-4.1724,4.268
28.7650,-0.5592,-1.9120,-4.5042,4.925
28.7790,-1.0502,-3.5017,-5.2264,6.378
28.7850,0.1715,-3.8907,-6.9972,8.008
28.7890,0.6025,-2.9938,-10.4372,10.875
28.7990,0.0986,-1.9257,-12.1061,12.259
28.8080,-0.8849,-2.4734,-10.6644,10.983
28.8230,-2.3020,-3.6804,-7.0624,8.290
28.8800,-4.5371,-4.5915,-2.9674,7.104
28.8810,-7.1341,-5.4744,-1.1753,9.069
28.8820,-10.2956,-6.3838,-1.8518,12.255
28.8830,-12.5645,-6.5834,-4.4048,14.853
28.8840,-12.9088,-6.1229,-7.0861,15.948
28.8850,-11.1964,-4.8540,-9.2804,15.331
28.8880,-8.7487,-3.4323,-10.3420,13.974
28.9010,-6.3110,-1.9505,-11.2080,13.010
28.9080,-6.6287,-2.0210,-10.7406,12.782
28.9180,-7.2313,-4.3814,-8.3053,11.852
28.9640,-5.7883,-7.0195,-5.4904,10.627
28.9650,-2.4754,-9.1545,-3.5788,10.136
28.9660,2.2555,-9.8037,-4.6555,11.085
28.9670,5.3572,-7.0712,-1.2477,8.959
28.9680,3.6990,-5.8198,2.7869,7.438
28.9770,3.0809,-6.9659,3.1784,8.253
28.9870,4.5093,-8.7661,1.3961,9.956
29.0010,8.2728,-12.4162,-2.6519,15.154
29.0080,11.1258,-14.8698,-8.3437,20.360
29.0560,11.2427,-11.9209,-10.1816,19.292
29.0600,9.4161,-8.2642,-4.9892,13.485
29.0610,5.2552,-4.6689,6.0120,9.250
29.0630,1.0095,-1.9608,10.7008,10.926
29.0650,0.7921,0.5142,8.4402,8.493
29.0960,0.0151,1.8407,1.8223,2.590
29.0960,-2.8871,2.1090,-0.3062,3.588
29.0970,-0.9257,2.4554,2.1811,3.412
29.0980,1.1570,2.6536,5.2768,6.019
29.1400,1.1757,2.4958,6.1179,6.711
29.1410,2.0476,2.3840,4.4456,5.444
29.1420,1.4073,2.3820,4.0832,4.932
29.1430,1.1548,3.1571,3.9019,5.150
29.1490,1.1824,4.5346,4.2072,6.298
29.1570,1.1464,6.0386,4.9075,7.865
29.1810,2.3616,7.8064,5.0854,9.611
29.1850,3.5332,9.0562,5.9811,11.414
29.1910,4.3908,10.0710,6.6697,12.853
29.2190,5.0936,10.4244,7.2457,13.679
29.2200,5.5887,10.8339,7.7107,14.424
29.2210,5.6434,11.1842,8.3875,15.076
29.2300,5.0164,11.0180,8.6699,14.890
29.2360,4.0326,10.2930,7.9437,13.613
29.2800,3.4322,9.3923,5.1037,11.227
29.2810,3.5309,8.9820,1.6000,9.783
29.2820,1.9311,7.5017,-4.3883,8.903
29.2820,-1.7463,4.3026,-12.0215,12.887
29.2880,-5.3495,-0.3467,-18.7257,19.478
29.2970,-7.7866,-4.5907,-23.7118,25.376
29.3080,-5.4824,-8.8307,-6.6944,12.363
29.3230,1.0392,-10.0243,-1.8051,10.238
29.3770,3.0795,-12.0028,-5.7491,13.660
29.3780,1.3894,-12.1828,-7.9590,14.618
29.3790,0.9149,-7.3619,-12.8715,14.856
29.3800,4.7301,-6.1141,-10.0203,12.655
29.3810,16.4037,-9.8410,-0.1412,19.130
29.3820,24.2471,-13.1625,0.0397,27.589
29.4200,17.5156,-10.8991,4.4650,21.107
29.4210,9.5534,-3.4485,8.9997,13.570
29.4220,0.6848,-0.4010,14.5892,14.611
29.4220,-4.5094,0.1414,12.4369,13.230
29.4370,-2.1704,4.3673,5.1772,7.112
29.4400,-1.3966,7.1466,3.1374,7.929
29.4750,-1.5862,7.9840,3.0964,8.709
29.4760,-2.6288,7.5212,3.4944,8.700
29.4770,-2.7875,7.0032,6.5527,9.988
29.4770,0.6944,6.0147,8.5262,10.457
29.4870,3.9018,4.7620,7.0808,9.383
29.5140,5.4474,1.7423,7.9654,9.806
29.5150,3.9005,-2.7583,9.1034,10.281
29.5160,-3.0128,-10.2267,8.7449,13.789
29.5320,-5.2817,-12.2176,9.0591,16.101
29.5360,-0.3664,-7.3238,9.4276,11.944
29.5700,0.7431,-4.0107,7.8787,8.872
29.5710,-0.1368,-1.6788,3.9087,4.256
29.5720,-0.9475,0.1572,0.2483,0.992
29.6130,-1.4933,2.4162,-2.8957,4.056
29.6140,-2.0520,3.9516,-11.7564,12.571
29.6150,-2.8164,3.6476,-15.2215,15.904
29.6160,-3.4330,2.9614,-12.2606,13.072
29.6170,-2.9736,2.3513,-7.4322,8.343
29.6280,-0.9768,2.4454,-4.4335,5.157
29.6360,0.7223,2.4762,-1.9413,3.228
29.6490,1.1862,1.8260,0.2579,2.193
29.6560,1.5026,0.5067,1.1096,1.935
29.7040,1.7398,-0.9345,-1.6916,2.600
29.7130,0.6875,-2.5738,-5.2625,5.898
29.7210,-0.8584,-3.3375,-7.1422,7.930
29.7290,-2.7593,-3.4750,-8.1782,9.304
29.7330,-3.4663,-3.9649,-8.7266,10.193
29.7370,-3.8166,-4.3104,-8.8007,10.517
29.7400,-3.6712,-3.7731,-8.2372,9.776
29.7440,-3.0654,-3.4320,-7.4670,8.771
29.7510,-2.9446,-3.8125,-6.4804,8.075
29.7580,-3.5228,-4.3694,-4.9732,7.499
29.7730,-5.5117,-5.0255,-3.6191,8.290
29.8330,-8.1769,-5.3646,-4.3608,10.708
29.8340,-11.8551,-5.8819,-5.9569,14.513
29.8360,-14.0674,-5.7338,-7.4453,16.917
29.8360,-13.5748,-4.3692,-9.0228,16.875
29.8370,-11.9101,-3.3799,-9.7394,15.752
29.8380,-10.6812,-3.6655,-8.1095,13.903
29.8390,-9.8688,-4.8373,-6.1960,12.617
29.8550,-6.5825,-6.4936,-5.4111,10.713
29.8590,-1.7271,-8.7672,-8.8835,12.600
29.9010,4.6910,-11.4416,-4.9731,13.328
29.9050,6.4404,-10.2947,3.5900,12.663
29.9070,4.0631,-8.8899,7.6197,12.393
29.9210,2.7539,-10.3940,8.6703,13.813
29.9230,2.9763,-10.3404,8.9223,13.978
29.9250,8.9390,-13.4608,-0.0724,16.159
29.9350,10.5883,-13.4091,-6.1236,18.150
29.9370,9.6465,-10.6517,-6.8279,15.910
29.9870,7.5551,-7.8286,-3.2391,11.352
29.9880,3.2577,-5.8301,1.6433,6.878
29.9880,0.6936,-4.0252,11.7601,12.449
29.9890,2.8489,-1.2716,3.8491,4.955
29.9890,-1.0760,-0.6210,0.7890,1.472
30.0240,1.0959,1.7964,-1.6025,2.645
30.0250,3.0086,4.9872,6.1297,8.456
30.0250,3.4881,6.4855,8.4821,11.233
30.0600,1.4482,6.6467,7.5372,10.153
30.0610,0.1356,6.4477,6.4452,9.118
30.0620,0.2440,6.6220,5.5752,8.660
30.0620,0.9537,6.8694,4.9794,8.538
30.0670,1.3569,7.2476,4.8264,8.813
30.0760,2.3263,7.6950,5.4148,9.693
30.0940,3.6913,8.4752,5.6073,10.812
30.0990,5.8069,9.5304,6.6485,12.990
30.1080,7.2117,10.7579,7.4630,14.948
30.1180,7.8306,11.7776,8.6379,16.572
30.1380,6.9048,11.9741,9.2067,16.608
30.1420,5.6349,11.4847,9.2787,15.803
30.1870,4.4019,10.4616,8.4594,14.156
30.1900,3.3420,9.0168,6.6198,11.675
30.1930,2.9955,7.6042,3.6907,8.968
30.1960,1.5833,5.7181,0.0556,5.933
30.1980,-1.2703,3.3425,-5.2308,6.336
30.2000,-4.2230,0.4175,-11.9650,12.695
30.2080,-5.6149,-2.9774,-22.0169,22.916
30.2240,-8.0177,-9.3913,-20.2466,23.715
30.2830,-3.9958,-13.2852,-7.0368,15.556
30.2850,0.6539,-14.8106,-4.3185,15.441
30.2860,0.0648,-14.5427,-5.8190,15.664
30.2870,-0.3680,-10.2864,-9.0062,13.677
30.2880,4.1488,-8.8451,-9.5233,13.643
30.2880,14.4398,-13.1517,-0.9749,19.556
30.2900,17.8173,-16.9502,-0.2163,24.593
30.3070,9.6965,-12.6152,6.4978,17.187
30.3110,8.5970,-0.4732,12.8894,15.501
30.3510,8.3122,5.0612,11.0776,14.745
30.3520,4.9375,6.4608,8.4932,11.758
30.3530,3.4708,7.1409,4.2754,9.018
30.3530,2.4273,7.2073,1.5793,7.767
30.3970,1.3506,6.3190,1.6068,6.658
30.3980,1.2653,5.6388,2.6576,6.361
30.3990,1.7420,5.1393,3.7293,6.584
30.3990,2.4680,4.1870,6.1365,7.828
30.4000,2.4249,2.8911,8.6376,9.426
30.4090,2.5717,0.7850,10.3739,10.717
30.4170,1.8322,-1.8644,11.1971,11.498
30.4340,-0.7107,-5.5956,10.1741,11.633
30.4360,-2.3388,-7.2174,8.1311,11.121
30.4730,-0.6972,-5.1937,6.6436,8.462
30.4740,-0.1169,-2.7980,5.2683,5.966
30.4750,-0.5620,-0.4004,3.1132,3.189
30.4760,-1.2311,1.3769,1.1914,2.198
30.4870,-2.2626,3.1402,-0.3057,3.882
30.5000,-2.9436,4.2838,-0.6935,5.244
30.5070,-3.3925,4.5449,-0.6514,5.709
30.5430,-3.7417,3.7698,-0.4756,5.333
30.5440,-3.8514,2.2057,-0.1036,4.439
30.5450,-5.2858,-1.1703,-1.2571,5.558
30.5470,-6.0223,-4.4671,-4.9198,8.968
30.5560,-3.7447,-4.8595,-9.0588,10.941
30.5670,-0.8513,-3.8995,-11.0689,11.767
30.5760,0.0063,-2.8137,-9.9162,10.308
30.5880,-0.0478,-2.8781,-10.0712,10.474
30.6000,-0.9093,-2.2992,-6.1112,6.592
30.6070,-1.3525,-2.6323,-4.8393,5.672
30.6680,-1.8924,-2.5769,-7.0498,7.741
30.6760,-2.0857,-2.5985,-10.3734,10.895
30.6830,-2.9067,-3.2638,-10.6739,11.534
30.6900,-3.9262,-4.1187,-8.0207,9.834
30.6960,-6.1247,-4.7856,-4.4099,8.936
30.7020,-7.6288,-5.1345,-2.3451,9.490
30.7050,-9.2121,-5.4575,-1.6410,10.832
30.7080,-10.3328,-5.8519,-2.5221,12.140
30.7120,-10.6905,-5.6210,-4.7210,12.968
30.7150,-9.7342,-4.6042,-7.0335,12.862
30.7190,-8.2000,-3.6038,-8.6001,12.417
30.7280,-7.6999,-3.6044,-9.0945,12.450
30.7410,-9.0056,-4.6162,-7.1838,12.410
30.7980,-8.9267,-5.4776,-4.8059,11.523
30.7990,-6.3160,-6.5016,-4.4740,10.108
30.7990,-2.2606,-7.3669,-7.9114,11.044
30.8000,1.8468,-8.8617,-10.5066,13.868
30.8010,4.6692,-9.2006,-4.8393,11.396
30.8020,5.8518,-9.3773,2.3748,11.306
30.8080,5.7727,-8.1042,4.0973,10.761
30.8170,5.6332,-8.3409,4.5288,11.037
30.8320,5.2474,-9.4884,2.8895,11.221
30.8460,5.0571,-11.3305,0.3283,12.412
30.8510,5.8229,-11.8911,-3.1429,13.608
30.8570,5.6290,-9.4251,-1.0103,11.024
30.8950,3.7872,-5.9562,3.8803,8.054
30.8990,4.1683,-2.6679,0.2135,4.954
30.9020,2.8388,0.6526,-8.4518,8.940
30.9150,3.6746,2.0450,-3.4629,5.448
30.9150,2.8833,2.3696,5.4818,6.632
30.9160,2.9646,3.9366,7.2813,8.792
30.9270,3.1098,5.9685,7.6832,10.214
30.9360,1.9115,6.5961,6.9701,9.785
30.9920,-0.8140,6.4196,5.5815,8.546
30.9930,-1.6722,6.0926,4.6193,7.826
30.9930,-1.0793,5.6943,4.2634,7.195
30.9940,-0.7048,4.9893,3.6839,6.242
30.9950,0.1145,4.2072,3.5114,5.481
31.0030,1.6309,3.9749,3.7193,5.683
31.0070,4.1870,4.3768,4.8367,7.751
31.0230,7.2953,5.6181,5.7523,10.857
31.0270,8.8454,7.2052,6.9245,13.346
31.0690,8.9833,8.3102,7.5842,14.397
31.0710,8.3825,8.7762,8.0327,14.554
31.0740,6.7653,8.9951,7.2897,13.410
31.0760,4.6632,9.3428,5.7895,11.940
31.0790,2.9119,9.3456,4.1411,10.629
31.0880,1.9588,9.4184,1.8739,9.801
31.1050,0.3540,8.5148,-1.7639,8.703
31.1070,-3.3028,5.7909,-7.8529,10.301
31.1600,-6.8289,2.9924,-11.5812,13.774
31.1670,-9.6035,-0.3495,-21.0648,23.153
31.1720,-11.0694,-6.3397,-13.1311,18.307
31.1750,-5.2622,-9.2428,-0.4980,10.647
31.1790,1.2590,-11.5413,-1.5697,11.715
31.1830,2.0318,-14.0573,-4.6068,14.932
31.1860,0.4449,-11.9589,-8.0082,14.399
31.1910,3.1239,-7.7636,-4.0267,9.287
31.2010,12.7851,-5.5244,4.6864,14.695
31.2090,19.0857,-8.9557,3.1359,21.314
31.2190,16.0950,-9.5126,3.3470,18.993
31.2270,6.7994,-6.5407,8.3184,12.578
31.2370,3.0686,-2.6802,7.4440,8.486
31.2960,2.9005,0.5412,5.9468,6.639
31.2970,2.6644,3.2270,4.2204,5.943
31.2980,2.4237,4.8833,3.0479,6.246
31.2990,2.1158,5.9402,2.1366,6.658
31.3000,1.9946,5.9495,2.0112,6.589
31.3010,0.6522,6.2202,-0.0570,6.255
31.3070,0.6586,5.6908,0.3319,5.738
31.3170,1.5676,4.8365,1.0311,5.188
31.3270,2.4053,3.3608,1.4734,4.388
31.3360,2.3790,1.0611,2.3951,3.539
31.3740,0.5429,-1.7095,5.3892,5.680
31.3750,-2.3397,-6.2368,8.3214,10.659
31.3760,-2.1079,-7.0514,8.2172,11.031
31.3760,-0.8505,-4.4593,6.6093,8.018
31.3870,-0.3958,-1.7022,4.7472,5.059
31.4010,-0.9193,1.3129,2.8952,3.309
31.4070,-2.0961,3.3676,2.0471,4.464
31.4450,-2.8117,4.4381,1.8287,5.563
31.4470,-2.9475,4.6994,1.5468,5.759
31.4480,-3.3072,3.5642,0.6094,4.900
31.4480,-2.7644,1.9898,-0.2506,3.415
31.4560,-1.8494,0.7944,-0.8269,2.176
31.4670,-0.9695,-0.5562,-0.5752,1.257
31.4760,-0.3801,-1.7254,-0.3818,1.808
31.4870,1.2831,-1.8001,-4.9234,5.397
31.5010,2.0653,-1.9387,-10.1179,10.507
31.5070,1.2746,-2.3412,-13.0097,13.280
31.5580,0.1080,-2.5801,-12.1841,12.455
31.5630,-1.0570,-2.5813,-8.9892,9.412
31.5670,-2.1803,-2.4674,-6.7839,7.541
31.5710,-4.0331,-2.9267,-5.5893,7.488
31.5730,-5.1009,-3.6454,-6.6182,9.116
31.5760,-5.2888,-4.0852,-8.7681,11.025
31.5800,-5.6419,-4.2856,-8.2634,10.885
31.5920,-5.7945,-4.4044,-6.0067,9.437
31.6090,-5.7394,-4.6411,-4.2745,8.529
31.6120,-6.8994,-5.2339,-2.5426,9.025
31.6650,-8.5024,-5.5846,-2.6543,10.513
31.6660,-10.0697,-4.9795,-4.5986,12.138
31.6670,-10.6704,-4.2065,-6.2985,13.085
31.6690,-9.9298,-3.2508,-8.6991,13.596
31.6700,-9.2824,-3.3587,-9.9153,13.991
31.6700,-9.7407,-4.7055,-8.6481,13.850
31.6760,-8.6605,-5.7061,-6.6346,12.312
31.6870,-4.9591,-6.8549,-5.6256,10.160
31.6960,-0.3092,-8.0315,-9.1941,12.212
31.7100,4.0006,-9.4487,-7.8084,12.894
31.7600,5.7575,-8.7567,2.0773,10.684
31.7630,4.1203,-8.1988,5.6608,10.782
31.7650,4.1345,-7.8653,5.3813,10.388
31.7680,5.3672,-8.9298,3.6804,11.050
31.7710,7.5456,-11.3121,0.2504,13.600
31.7730,9.8261,-12.8604,-5.0684,16.960
31.7860,8.8953,-11.2712,-5.4549,15.360
31.7880,5.0683,-8.7805,2.8727,10.537
31.8350,-0.2182,-7.2146,14.9807,16.629
31.8360,3.8305,-1.0642,-8.7665,9.626
31.8370,1.9866,1.2086,-8.5356,8.847
31.8380,3.0580,3.1183,-2.3761,4.972
31.8390,3.7958,4.3903,7.0722,9.149
31.8890,3.2761,5.3203,8.4915,10.542
31.8890,1.6810,5.8280,8.3284,10.303
31.8900,-0.1766,5.6867,8.2607,10.030
31.8910,-1.5376,5.7962,6.2787,8.682
31.8920,-2.2484,6.0243,5.4076,8.402
31.9430,-1.8300,6.1319,5.0382,8.144
31.9460,0.6401,6.5384,4.6203,8.032
31.9480,3.8612,6.7823,5.1295,9.339
31.9480,5.2447,6.5731,5.8343,10.235
31.9490,6.1581,6.8410,6.8615,11.480
31.9500,7.3557,7.6809,7.9333,13.268
31.9570,7.5740,8.6245,8.2317,14.125
31.9770,6.7883,8.9749,8.0749,13.850
31.9780,4.7075,8.7670,6.3537,11.806
32.0110,3.4004,8.3968,4.1188,9.952
32.0110,2.8216,8.5487,2.2516,9.280
32.0120,2.8776,9.1499,-0.7304,9.620
32.0190,1.2477,8.3818,-5.1085,9.895
32.0270,-2.7425,4.9276,-10.2566,11.705
32.0650,-6.0053,1.6540,-12.5800,14.038
32.0650,-6.1732,1.7212,-12.7474,14.268
32.0660,-6.2136,-5.8076,-11.0775,13.966
32.0680,-0.5398,-8.2154,-3.5429,8.963
32.0770,2.9490,-10.3074,-3.2857,11.213
32.0930,3.8530,-12.5538,-7.8062,15.277
32.0980,3.8353,-12.4267,-11.0823,17.087
32.1470,8.5653,-12.1927,-4.2858,15.505
32.1540,14.2548,-14.1304,1.0471,20.099
32.1600,10.4694,-14.5785,1.0897,17.981
32.1650,2.7063,-8.7902,9.1385,12.965
32.1690,0.8918,-1.3527,11.0361,11.154
32.1730,0.9719,2.0172,6.8353,7.193
32.1760,1.5432,4.4423,3.3239,5.759
32.1790,1.6174,5.9906,1.9600,6.507
32.1980,2.0444,6.6278,1.6532,7.130
32.2010,3.0213,6.7895,1.9339,7.679
32.2450,4.3089,6.2926,2.2561,7.953
32.2460,4.9038,5.3810,2.3263,7.643
32.2460,4.8607,4.3559,2.5660,7.013
32.2470,4.6338,3.1107,2.9673,6.321
32.2480,4.1374,1.3949,5.1764,6.772
32.2560,3.8845,-0.2193,7.2213,8.203
32.3100,2.7663,-1.4944,7.5848,8.211
32.3110,2.0952,-2.3764,6.9861,7.671
32.3120,2.4539,-1.9195,5.7111,6.506
32.3130,1.5522,-1.2246,4.7401,5.136
32.3130,-0.3840,-0.6235,4.1240,4.188
32.3180,-1.4396,0.3608,3.3033,3.621
32.3280,-1.3222,1.3350,2.1291,2.840
32.3370,-1.7493,1.7793,1.0872,2.722
32.3720,-2.5179,1.3423,0.3547,2.875
32.3730,-3.5351,0.4065,-0.1541,3.562
32.3740,-3.8701,-0.2908,0.1207,3.883
32.3760,-4.6038,-1.3047,-1.4304,4.994
32.3870,-5.8823,-2.3320,-4.7628,7.920
32.3960,-5.2358,-1.8219,-8.8873,10.475
32.4210,-3.3270,-0.9263,-10.7421,11.284
32.4270,-1.9956,-0.6841,-10.2769,10.491
32.4310,-1.5211,-1.1285,-8.6369,8.842
32.4770,-1.4827,-1.8851,-5.8886,6.358
32.4810,-1.6367,-2.2605,-3.4956,4.473
32.4840,-1.9773,-2.5981,-2.2401,3.960
32.4870,-1.7744,-3.1451,-3.6302,5.120
32.4890,-1.7295,-3.3876,-9.4497,10.186
32.4920,-2.0594,-3.6170,-14.3354,14.927
32.4990,-2.9525,-4.0222,-13.3356,14.238
32.5080,-3.6003,-4.1349,-8.4776,10.096
32.5210,-4.4088,-3.9734,-3.8319,7.065
32.5270,-5.9210,-4.1421,-2.1530,7.540
32.5770,-8.4673,-4.8519,-2.5923,10.097
32.5800,-10.7236,-5.1669,-4.8405,12.850
32.5890,-11.5502,-5.1821,-6.9708,14.452
32.5920,-11.6754,-5.1390,-8.0735,15.097
32.5940,-11.8813,-6.0834,-7.7764,15.448
32.5970,-12.2383,-8.0647,-5.6236,15.698
32.6000,-10.1029,-8.7886,-4.2358,14.045
32.6120,-3.8650,-7.5631,-6.9856,10.997
32.6610,1.1800,-7.0347,-10.3545,12.574
32.6610,6.8301,-6.5424,-8.5172,12.728
32.6620,7.8250,-6.8961,-1.0155,10.479
32.6630,5.7677,-6.9987,2.7534,9.478
32.6630,4.5113,-7.4107,3.6569,9.415
32.7100,5.2569,-9.5346,3.1942,11.347
32.7100,6.6015,-11.8211,2.5287,13.774
32.7110,8.5078,-14.5372,1.5192,16.912
32.7120,7.2082,-14.6089,5.9610,17.347
32.7130,0.8157,-10.0296,5.0219,11.246
32.7300,-1.6085,-6.6779,-3.0184,7.503
32.7330,1.8603,-1.8447,-10.1635,10.496
32.7820,4.5328,0.9159,-7.7585,9.032
32.7820,6.8336,3.6101,-0.8599,7.776
32.7830,3.4535,3.6260,10.1340,11.304
32.7840,2.7927,5.3059,7.4408,9.556
32.7840,1.2039,5.9426,5.4845,8.176
32.8390,1.8537,6.7690,5.7922,9.100
32.8400,1.8731,7.1560,5.5863,9.269
32.8400,0.3930,7.0725,6.0350,9.306
32.8410,0.0350,7.1394,6.0765,9.375
32.8420,-0.1751,6.7101,5.9785,8.989
32.8420,0.3179,5.8820,5.3221,7.939
32.8490,1.4426,5.3995,5.5423,7.871
32.8590,3.7135,5.9632,5.7996,9.110
32.8810,6.1672,7.0848,5.9055,11.095
32.8840,7.8214,8.3987,6.7213,13.300
32.8880,7.3289,9.2243,7.8403,14.152
32.9010,6.7697,9.7225,8.0591,14.328
32.9460,5.7564,9.5445,7.1393,13.236
32.9470,3.9314,9.6160,5.9718,11.983
32.9470,3.0458,9.5425,4.1583,10.846
32.9480,1.5577,8.2601,1.5186,8.542
32.9480,0.3009,6.8700,-3.2664,7.613
32.9570,-3.0528,3.7409,-10.7028,11.742
32.9990,-6.3027,0.3174,-17.3105,18.425
33.0000,-8.9755,-4.7242,-19.0424,21.575
33.0010,-6.4071,-8.9031,-4.6052,11.896
33.0010,1.4646,-9.6683,-1.1440,9.845
33.0080,3.6505,-10.7476,-4.4520,12.192
33.0300,1.4521,-10.6053,-10.3162,14.866
33.0340,0.3806,-7.5086,-15.2797,17.029
33.0750,8.1187,-7.8675,-7.7422,13.702
33.0760,20.8770,-11.5390,3.2241,24.071
33.0770,21.9240,-17.6037,2.0125,28.189
33.0780,5.6909,-14.8717,6.7043,17.277
33.0790,-2.4769,-5.3724,15.0078,16.132
33.1240,-3.2991,-0.4261,13.4400,13.846
33.1250,-0.0082,4.0890,5.4222,6.791
33.1250,1.5868,7.2808,1.3685,7.576
33.1260,1.0653,8.2580,0.4694,8.340
33.1280,0.9319,8.5504,1.2430,8.690
33.1380,0.8162,8.3579,3.0651,8.939
33.1480,1.8054,7.5398,5.4305,9.466
33.1570,4.0731,6.3934,7.5170,10.676
33.2020,4.8389,4.2070,7.4427,9.824
33.2030,3.6654,1.1438,7.4820,8.410
33.2040,1.4072,-3.2400,7.2375,8.054
33.2040,-2.5921,-8.5564,6.9896,11.348
33.2070,-1.7306,-9.1435,7.4416,11.915
33.2180,2.6496,-5.2331,7.0516,9.172
33.2270,3.6344,-2.1738,5.3497,6.823
33.2390,1.8892,-0.2484,3.8093,4.259
33.2470,-1.0781,1.8090,4.7980,5.240
33.2800,-2.8605,2.6671,3.5402,5.275
33.2820,-4.4862,2.0322,-3.2851,5.920
33.2820,-6.1869,1.0754,-12.0782,13.613
33.2890,-6.8866,0.3675,-13.5621,15.215
33.2960,-6.0004,0.1562,-11.5831,13.046
33.3080,-3.2917,0.6213,-8.1944,8.853
33.3160,-1.1294,0.0833,-5.6258,5.739
33.3510,0.3393,-1.1116,-1.5402,1.929
33.3560,1.6562,-1.2987,0.3671,2.136
33.3610,2.1254,-1.1058,-0.9098,2.563
33.3660,1.1712,-1.1185,-2.9078,3.328
33.3790,0.3900,-1.2397,-4.4882,4.673
33.3890,-0.0707,-1.1967,-4.6954,4.846
33.3940,-0.0824,-1.2055,-5.2711,5.408
33.4010,-1.2462,-1.8191,-7.3282,7.653
33.4090,-2.0418,-2.4169,-8.7726,9.326
33.4320,-3.5976,-3.6598,-8.1203,9.606
33.4370,-3.6981,-3.6943,-8.1368,9.671
33.4400,-6.0768,-5.1211,-4.3912,9.079
33.5010,-7.5645,-5.4839,-4.3104,10.289
33.5050,-9.7715,-5.8008,-5.5838,12.661
33.5080,-10.6563,-5.2827,-6.3432,13.480
33.5100,-10.5290,-4.6350,-7.2547,13.601
33.5120,-10.0979,-5.1051,-7.2652,13.447
33.5140,-9.8245,-6.7436,-5.5205,13.133
33.5180,-9.1029,-7.8172,-3.0058,12.370
33.5210,-7.2981,-8.9090,-2.4019,11.764
33.5280,-3.2512,-8.5329,-5.7661,10.799
