time,ax,ay,az,aT
1.2660,0.1673,0.0247,0.0358,0.173
1.2680,0.0400,-0.0699,0.2176,0.232
1.2730,0.1622,-0.0807,0.1794,0.255
1.2810,0.1761,-0.0944,-0.1260,0.236
1.2920,0.0316,-0.0529,-0.2653,0.272
1.3030,-0.2376,-0.0074,-0.3451,0.419
1.3160,-0.1497,0.0663,-0.2834,0.327
1.3270,0.1539,0.1413,-0.1442,0.254
1.3340,0.2751,0.1379,-0.1282,0.333
1.3410,0.1696,0.1005,-0.0982,0.220
1.3510,0.0889,0.0844,-0.0192,0.124
1.3610,-0.0559,0.0384,0.1257,0.143
1.3730,-0.1796,0.0248,0.1919,0.264
1.3800,-0.2483,0.0459,0.1510,0.294
1.3930,-0.1837,0.0465,0.0893,0.210
1.4010,-0.0777,0.0142,-0.0156,0.081
1.4130,0.0132,0.0165,-0.0850,0.088
1.4230,0.0958,0.0261,-0.0043,0.099
1.4330,0.2151,0.0396,0.1018,0.241
1.4470,0.2126,0.0402,0.1255,0.250
1.4520,0.1121,0.0397,0.1204,0.169
1.4620,-0.0306,0.0375,-0.0223,0.053
1.4730,-0.1096,0.0605,-0.0906,0.155
1.4810,-0.1213,0.0481,-0.1155,0.174
1.4930,-0.1159,0.0098,-0.1273,0.172
1.5000,-0.1477,-0.0501,-0.1977,0.252
1.5120,-0.1434,-0.1458,-0.2155,0.297
1.5330,-0.0639,-0.1496,-0.1961,0.255
1.5370,-0.1137,-0.1397,-0.2411,0.301
1.5430,-0.1345,-0.1233,-0.2213,0.287
1.5530,-0.1157,-0.0900,-0.1570,0.215
1.5620,-0.1088,-0.0734,-0.1834,0.225
1.5730,-0.1055,-0.0515,-0.1435,0.185
1.5820,-0.1013,-0.0221,-0.0385,0.111
1.5930,-0.0783,0.0042,0.0538,0.095
1.6020,-0.0730,-0.0875,0.1382,0.179
1.6110,-0.2084,-0.1716,0.0110,0.270
1.6260,-0.3712,-0.2684,-0.2989,0.547
1.6370,-0.3591,-0.2620,-0.5233,0.687
1.6440,-0.1782,-0.1650,-0.5857,0.634
1.6540,0.0870,-0.0481,-0.3375,0.352
1.6610,0.2749,0.0324,-0.1940,0.338
1.6720,0.1829,0.0264,0.0794,0.201
1.6800,0.1333,0.0908,0.4268,0.456
1.6930,0.0597,0.1342,0.3709,0.399
1.7010,0.1494,0.2107,-0.1429,0.295
1.7140,0.1599,0.1917,-0.4964,0.556
1.7230,0.0271,0.1868,-0.3657,0.412
1.7330,-0.0497,0.1927,-0.2219,0.298
1.7430,-0.0695,0.1960,-0.2046,0.292
1.7540,-0.0418,0.2000,-0.2849,0.351
1.7600,-0.0053,0.2513,-0.3370,0.420
1.7720,0.0364,0.3085,-0.2779,0.417
1.7810,0.1064,0.3958,-0.2395,0.475
1.7940,0.1660,0.4170,-0.2377,0.508
1.8000,0.1271,0.4243,-0.1753,0.476
1.8110,-0.1923,0.2782,-0.0424,0.341
1.8250,0.0076,0.2397,-0.5673,0.616
1.8320,1.0433,0.3739,-2.2258,2.486
1.8460,0.5807,0.4902,-0.0611,0.762
1.8520,0.3338,0.5689,0.1461,0.676
1.8620,0.2874,0.4011,-0.2784,0.567
1.8720,0.3354,0.1263,-0.2335,0.428
1.8800,0.4938,0.1025,-0.2188,0.550
1.8920,0.7681,0.3556,-0.2297,0.877
1.9010,1.1220,0.6367,0.1637,1.300
1.9200,1.0384,0.6528,0.2637,1.255
1.9220,0.5458,0.4919,-0.0385,0.736
1.9310,-0.1048,0.2189,-0.1283,0.275
1.9410,-0.2186,0.1295,0.0820,0.267
1.9520,0.5835,0.3061,0.3885,0.765
1.9610,0.5676,0.4394,0.5727,0.918
1.9720,0.7324,0.6723,0.1849,1.011
1.9800,0.9695,0.6897,0.3843,1.250
1.9930,0.8226,0.5916,0.6106,1.183
2.0000,0.4125,0.3659,0.4076,0.686
2.0120,0.0455,0.0687,-0.1661,0.185
2.0220,-0.1129,-0.0341,-0.7134,0.723
2.0310,0.1372,0.2236,-1.0486,1.081
2.0430,0.1905,0.4610,-0.6607,0.828
2.0530,0.0982,0.5193,-0.1179,0.542
2.0620,-0.0459,0.1222,-0.2201,0.256
2.0730,-0.5575,-0.5314,-0.0634,0.773
2.0800,-1.5039,-1.1387,0.1237,1.890
2.0920,-2.3500,-1.6115,0.3629,2.872
2.1000,-2.4031,-1.7197,0.7066,3.038
2.1110,-1.9054,-1.5911,0.9076,2.643
2.1220,-1.3791,-1.2953,0.6375,1.996
2.1310,-0.6700,-0.8405,0.1402,1.084
2.1400,-0.2371,-0.4806,0.0051,0.536
2.1520,-0.0208,-0.2751,0.0093,0.276
2.1610,-0.0740,-0.2242,0.0719,0.247
2.1720,-0.1537,-0.2861,0.1976,0.380
2.1810,-0.1663,-0.2976,0.2231,0.407
2.1950,-0.1154,-0.1886,-0.1354,0.259
2.2020,0.0551,-0.0247,-0.3644,0.369
2.2120,0.2485,0.1028,-0.4486,0.523
2.2260,0.1583,0.0408,-0.3318,0.370
2.2310,-0.0250,-0.0250,-0.0882,0.095
2.2410,-0.1644,-0.0599,-0.0756,0.191
2.2590,-0.2467,-0.0784,-0.1954,0.324
2.2610,-0.1259,-0.0402,-0.2814,0.311
2.2740,0.0539,-0.0124,-0.4194,0.423
2.2820,0.0879,-0.0160,-0.5367,0.544
2.2970,0.0575,-0.0398,-0.5514,0.556
2.3020,0.0375,-0.0018,-0.3717,0.374
2.3110,0.0403,0.0167,-0.1894,0.194
2.3210,0.0064,-0.0204,0.0328,0.039
2.3310,0.0041,-0.0389,0.2568,0.260
2.3400,-0.0897,-0.0803,0.1934,0.228
2.3510,-0.1299,-0.0852,0.0523,0.164
2.3600,-0.0850,-0.0772,0.0278,0.118
2.3720,-0.0827,-0.0611,-0.0404,0.110
2.3810,-0.0984,-0.0531,-0.1082,0.156
2.3910,-0.0392,-0.0373,-0.1852,0.193
2.4000,-0.0903,-0.0898,-0.3242,0.348
2.4150,-0.1009,-0.1155,-0.4167,0.444
2.4220,-0.0462,-0.1056,-0.4124,0.428
2.4310,0.0037,-0.0725,-0.3102,0.319
2.4410,-0.0052,-0.0507,-0.1738,0.181
2.4510,-0.0128,-0.0663,-0.1719,0.185
2.4600,-0.0426,-0.0564,-0.1379,0.155
2.4710,0.0000,-0.0333,-0.0647,0.073
2.4790,0.0069,-0.0368,-0.0563,0.068
2.4920,-0.0260,-0.0329,-0.0683,0.080
2.5000,-0.0159,-0.0150,-0.0060,0.023
2.5110,0.0548,0.0344,0.0984,0.118
2.5230,0.1078,0.0794,0.2268,0.263
2.5310,-0.0091,0.0201,0.0418,0.047
2.5400,-0.0494,-0.0012,-0.0711,0.087
2.5530,-0.0147,0.0110,-0.0425,0.046
2.5600,0.0313,0.0457,0.1096,0.123
2.5710,0.0472,0.0631,0.0329,0.085
2.5800,0.1017,0.1021,-0.0017,0.144
2.5910,0.1211,0.1257,-0.0935,0.198
2.6000,0.0676,0.1369,-0.1602,0.221
2.6120,0.0014,0.0953,-0.0831,0.126
2.6230,0.0016,0.0938,-0.0828,0.125
2.6310,0.0393,0.0404,0.1902,0.198
2.6400,0.0708,0.0395,0.2670,0.279
2.6500,0.0450,0.0147,0.1848,0.191
2.6640,-0.0500,0.0387,0.2408,0.249
2.6720,-0.1130,0.0640,0.3356,0.360
2.6800,-0.0506,0.0639,0.3313,0.341
2.6920,0.0961,0.0141,0.2030,0.225
2.7000,0.1372,0.0067,0.0990,0.169
2.7120,0.0129,-0.0092,0.0097,0.019
2.7220,-0.1252,0.0018,-0.0231,0.127
2.7310,-0.1749,0.0517,-0.0691,0.195
2.7420,-0.1690,0.0567,-0.1225,0.216
2.7510,-0.1412,0.0615,-0.1102,0.189
2.7600,-0.1291,0.0223,-0.1641,0.210
2.7720,-0.0853,0.0049,-0.2111,0.228
2.7800,-0.0300,0.0271,-0.1853,0.190
2.7940,-0.0415,0.0415,-0.1648,0.175
2.8010,-0.0581,0.0651,-0.1386,0.164
2.8110,-0.0520,0.0594,-0.1668,0.185
2.8200,-0.0518,0.0336,-0.1678,0.179
2.8310,-0.0284,0.0028,-0.1008,0.105
2.8410,0.0107,-0.0261,0.0067,0.029
2.8510,0.0021,-0.0247,0.0627,0.067
2.8600,-0.0354,-0.0162,0.0744,0.084
2.8710,-0.0112,0.0197,0.0385,0.045
2.8800,0.0094,0.0288,-0.0667,0.073
2.8930,-0.0491,-0.0025,-0.0698,0.085
2.9020,-0.0432,-0.0125,-0.0107,0.046
2.9130,-0.0318,-0.0058,-0.0055,0.033
2.9210,-0.0341,0.0162,-0.0375,0.053
2.9330,-0.0173,-0.0084,-0.1484,0.150
2.9410,0.0734,-0.0163,-0.1684,0.184
2.9520,0.0936,-0.0103,-0.0581,0.111
2.9600,0.0486,-0.0479,0.0184,0.071
2.9730,-0.0234,-0.0535,0.0587,0.083
2.9810,-0.0626,-0.0084,-0.0075,0.064
2.9920,-0.0534,0.0050,-0.0521,0.075
3.0030,-0.0164,-0.0085,-0.0606,0.063
3.0120,0.0224,-0.0163,0.0399,0.049
3.0220,-0.0369,-0.0657,0.0757,0.107
3.0330,-0.0979,-0.0896,0.0327,0.137
3.0430,-0.1347,-0.0656,-0.0711,0.166
3.0510,-0.1225,0.0048,-0.2046,0.239
3.0600,-0.0888,0.0369,-0.3355,0.349
3.0720,-0.0122,0.0667,-0.3539,0.360
3.0810,0.0501,0.0439,-0.2900,0.298
3.0920,0.0587,-0.0042,-0.1860,0.195
3.1000,0.0805,-0.0115,-0.0585,0.100
3.1110,0.0751,0.0119,0.0387,0.085
3.1200,0.0280,0.0280,0.0793,0.089
3.1320,0.0138,0.0470,0.1414,0.150
3.1420,0.0723,0.0468,0.0288,0.091
3.1510,0.0466,0.0365,0.0156,0.061
3.1610,0.0890,0.0516,-0.0044,0.103
3.1720,0.0930,0.0442,-0.0351,0.109
3.1800,0.0581,0.0580,-0.0259,0.086
3.1930,0.0409,0.0737,-0.0550,0.101
3.2020,0.0057,0.0656,-0.0482,0.082
3.2120,0.0515,0.0595,-0.0367,0.087
3.2220,0.0594,0.0352,0.0344,0.077
3.2320,0.0693,0.0093,0.1412,0.158
3.2420,0.0394,-0.0222,0.1139,0.123
3.2580,-0.0127,-0.0254,0.0520,0.059
3.2630,-0.0338,-0.0177,-0.0049,0.038
3.2720,-0.0372,-0.0005,-0.0626,0.073
3.2810,-0.0651,0.0201,-0.0997,0.121
3.2910,-0.0307,0.0133,-0.0720,0.079
3.3010,0.0166,0.0208,-0.0563,0.062
3.3120,0.0334,-0.0108,-0.0693,0.078
3.3260,-0.0338,-0.0371,-0.0825,0.097
3.3310,-0.0776,-0.0446,-0.1306,0.158
3.3410,-0.0958,-0.0225,-0.1224,0.157
3.3510,-0.1050,-0.0185,-0.0688,0.127
3.3610,-0.0802,-0.0354,-0.0402,0.096
3.3730,-0.0442,-0.0195,0.0125,0.050
3.3810,0.0009,0.0007,0.0090,0.009
3.3930,-0.0392,-0.0048,-0.0567,0.069
3.4030,-0.0644,0.0049,-0.1066,0.125
3.4130,-0.0724,0.0088,-0.1351,0.154
3.4250,-0.0768,0.0064,-0.1530,0.171
3.4310,-0.0505,0.0123,-0.0837,0.099
3.4420,-0.0381,-0.0018,-0.1297,0.135
3.4530,-0.0030,0.0095,-0.0575,0.058
3.4620,-0.0030,0.0328,0.0061,0.034
3.4730,-0.0194,0.0179,0.0442,0.052
3.4820,-0.0022,-0.0061,0.1457,0.146
3.4920,0.0167,-0.0068,0.1718,0.173
3.5010,0.0104,-0.0004,0.2018,0.202
3.5150,0.0206,-0.0049,0.1805,0.182
3.5210,-0.0130,0.0082,0.1441,0.145
3.5350,-0.0402,0.0292,0.1235,0.133
3.5410,0.0086,0.0262,0.1224,0.125
3.5520,0.0358,0.0187,0.0975,0.105
3.5600,0.0141,0.0488,0.1528,0.161
3.5730,0.0431,0.0821,0.1964,0.217
3.5810,0.0626,0.0994,0.0700,0.137
3.5940,0.0639,0.0911,-0.0800,0.137
3.6010,0.0316,0.0536,-0.1255,0.140
3.6120,0.0511,0.0412,-0.1372,0.152
3.6310,0.0843,0.0305,-0.1369,0.164
3.6380,0.1278,0.0238,-0.1691,0.213
3.6420,0.1410,0.0057,-0.1715,0.222
3.6520,0.1488,-0.0115,-0.1851,0.238
3.6600,0.1070,-0.0150,-0.2374,0.261
3.6720,0.0253,-0.0194,-0.1966,0.199
3.6800,-0.0128,-0.0181,-0.0939,0.097
3.6930,0.0376,-0.0141,0.0647,0.076
3.7010,0.1019,-0.0502,0.2423,0.268
3.7120,0.0679,-0.0733,0.2956,0.312
3.7240,-0.0193,-0.0868,0.2929,0.306
3.7310,-0.1204,-0.0499,0.1783,0.221
3.7410,-0.1753,0.0084,-0.0484,0.182
3.7520,-0.1816,0.0523,-0.2362,0.303
3.7610,-0.1323,0.0385,-0.3052,0.335
3.7730,-0.0399,-0.0052,-0.3923,0.394
3.7800,-0.0328,-0.0352,-0.3758,0.379
3.7930,-0.0389,-0.0234,-0.2316,0.236
3.8010,-0.0245,-0.0264,-0.1032,0.109
3.8110,-0.0559,-0.0077,0.0187,0.059
3.8230,-0.0346,-0.0058,0.1068,0.112
3.8380,0.0111,-0.0449,0.1220,0.131
3.8430,0.0064,-0.0640,0.1185,0.135
3.8530,0.0184,0.0139,0.0065,0.024
3.8610,0.0230,0.0152,0.0064,0.028
3.8720,-0.1925,0.0133,-0.3225,0.376
3.8800,-0.1928,0.0459,-0.3377,0.392
3.8920,-0.1651,0.0229,-0.2656,0.314
3.9000,-0.1043,-0.0078,-0.1724,0.202
3.9110,-0.1295,-0.0716,-0.2615,0.300
3.9260,-0.2653,-0.0874,-0.3282,0.431
3.9330,-0.2815,-0.1034,-0.2742,0.406
3.9420,-0.1210,-0.1215,-0.1175,0.208
3.9530,0.1285,-0.0610,0.0853,0.166
3.9620,0.3710,-0.0097,0.2882,0.470
3.9740,0.4277,-0.0435,0.3246,0.539
3.9820,0.3858,-0.0579,0.3075,0.497
3.9930,0.2591,-0.1068,0.2060,0.348
4.0010,0.0840,-0.1342,0.0381,0.163
4.0120,0.0009,-0.0726,-0.0334,0.080
4.0230,-0.0005,0.0574,-0.0695,0.090
4.0340,0.0374,0.1040,-0.1099,0.156
4.0570,0.0269,0.1096,-0.1738,0.207
4.0620,-0.0207,0.0324,-0.3149,0.317
4.0650,-0.0637,-0.0222,-0.3565,0.363
4.0740,-0.0180,0.0281,-0.2605,0.263
4.0810,0.1148,0.1006,-0.1506,0.214
4.0930,0.1611,0.1212,-0.0307,0.204
4.1000,0.1219,0.0458,-0.0156,0.131
4.1110,0.0353,0.0187,-0.0131,0.042
4.1200,-0.0567,0.0148,0.0096,0.059
4.1320,-0.0564,0.0201,0.0086,0.060
4.1400,-0.0657,0.0194,0.0724,0.100
4.1510,0.0172,0.0397,0.0923,0.102
4.1610,0.0563,-0.0095,0.0145,0.059
4.1710,0.0350,-0.0035,-0.0726,0.081
4.1810,-0.0135,-0.0386,-0.1139,0.121
4.1940,0.0044,-0.1087,-0.1671,0.199
4.2010,0.0938,-0.1103,-0.1125,0.183
4.2110,0.1586,-0.0687,-0.0774,0.189
4.2220,0.0853,-0.0450,-0.1023,0.141
4.2310,0.0856,-0.0454,-0.1022,0.141
4.2430,-0.0926,-0.0249,-0.1429,0.172
4.2510,-0.0550,-0.0153,-0.1359,0.147
4.2610,0.0348,-0.0080,-0.0849,0.092
4.2730,0.0864,-0.0545,-0.0556,0.116
4.2800,0.0739,-0.0603,0.0145,0.096
4.2920,0.0806,-0.0279,-0.0111,0.086
4.3010,0.0858,-0.0213,-0.0845,0.122
4.3180,0.0490,-0.0216,-0.1458,0.155
4.3330,0.0496,-0.0219,-0.1457,0.155
4.3330,0.0164,-0.0453,-0.1503,0.158
4.3430,0.0416,-0.0327,-0.1359,0.146
4.3520,0.1078,-0.0246,-0.1682,0.201
4.3620,0.0852,-0.0466,-0.2291,0.249
4.3740,0.0851,-0.0475,-0.2290,0.249
4.3800,-0.0748,-0.0771,-0.1127,0.156
4.3930,-0.0632,-0.0485,0.0215,0.083
4.4010,-0.0325,-0.0421,0.0968,0.110
4.4110,-0.0247,-0.0570,0.0464,0.078
4.4210,-0.0606,-0.0776,-0.0610,0.116
4.4350,-0.0426,-0.0352,-0.1504,0.160
4.4420,-0.0463,-0.0034,-0.2015,0.207
4.4540,-0.0258,0.0149,-0.2517,0.253
4.4630,-0.0309,0.0191,-0.2711,0.273
4.4750,-0.0299,0.0155,-0.1867,0.190
4.4830,0.0461,-0.0147,-0.0752,0.089
4.4920,0.1279,-0.0195,0.0181,0.131
4.5000,0.1548,-0.0239,0.0921,0.182
4.5120,0.0599,-0.0672,0.0622,0.109
4.5210,-0.0232,-0.0698,0.0038,0.074
4.5310,-0.0592,-0.0279,-0.0171,0.068
4.5420,-0.0734,0.0073,-0.0447,0.086
4.5510,-0.1152,0.0399,-0.0469,0.131
4.5600,-0.0648,0.0513,-0.0238,0.086
4.5710,-0.0669,0.0498,-0.0235,0.087
4.5810,0.0958,-0.0468,-0.1528,0.186
4.5930,0.0693,-0.0954,-0.1242,0.171
4.6010,0.0089,-0.0476,-0.0768,0.091
4.6170,-0.0044,0.0207,0.0351,0.041
4.6220,-0.0420,0.0331,0.0954,0.109
4.6310,-0.0196,0.0217,0.0876,0.092
4.6410,0.0565,-0.0435,-0.0586,0.092
4.6510,0.0777,-0.0550,-0.2127,0.233
4.6610,0.0621,-0.0422,-0.3629,0.371
4.6720,0.0504,-0.0405,-0.4699,0.474
4.6800,0.1031,-0.0194,-0.5390,0.549
4.6910,0.1995,0.0154,-0.4973,0.536
4.7000,0.2124,0.0041,-0.4648,0.511
4.7110,0.1769,-0.0544,-0.4082,0.448
4.7210,0.0859,-0.1620,-0.3048,0.356
4.7340,0.0352,-0.1667,-0.1205,0.209
4.7410,0.0184,-0.1311,0.1857,0.228
4.7530,0.0541,-0.0590,0.4621,0.469
4.7630,0.0823,-0.0041,0.5503,0.556
4.7730,0.0651,-0.0073,0.4672,0.472
4.7820,-0.0124,-0.0475,0.2899,0.294
4.7920,-0.0930,-0.0370,0.1692,0.197
4.8010,-0.0875,-0.0170,0.0339,0.095
4.8140,-0.0402,-0.0063,-0.1139,0.121
4.8240,0.0372,0.0082,-0.2675,0.270
4.8320,0.0581,0.0164,-0.3578,0.363
4.8430,-0.0239,-0.0087,-0.3658,0.367
4.8510,-0.0912,-0.0097,-0.2811,0.296
4.8620,-0.1002,0.0072,-0.1386,0.171
4.8710,-0.1009,0.0105,-0.0304,0.106
4.8800,-0.0983,-0.0085,-0.0679,0.120
4.8910,-0.0592,-0.0807,-0.0897,0.134
4.9010,0.0279,-0.0768,-0.1054,0.133
4.9110,0.0711,-0.0940,-0.1350,0.179
4.9210,0.0869,-0.0736,-0.0663,0.132
4.9350,0.1499,-0.0452,-0.0547,0.166
4.9420,0.0493,-0.0431,-0.0669,0.094
4.9520,-0.1027,-0.0049,-0.0142,0.104
4.9630,-0.0974,0.0087,-0.0235,0.101
4.9720,-0.0818,-0.0193,-0.1009,0.131
4.9820,-0.1172,-0.0146,-0.1901,0.224
4.9940,-0.1833,-0.0534,-0.1620,0.250
5.0000,-0.0620,0.0131,-0.1207,0.136
5.0110,-0.0270,-0.0110,-0.2278,0.230
5.0210,0.0489,-0.0472,-0.3900,0.396
5.0320,0.1824,-0.0370,-0.4599,0.496
5.0410,0.1094,-0.1116,-0.4489,0.475
5.0500,-0.0163,-0.1014,-0.2853,0.303
5.0600,-0.0083,0.0161,-0.0186,0.026
5.0710,0.0277,-0.0053,0.1575,0.160
5.0800,0.1497,-0.0927,0.2396,0.297
5.0910,0.3204,-0.1420,0.2939,0.457
5.1000,0.3688,-0.2196,0.2144,0.480
5.1140,0.3158,-0.2702,0.0843,0.424
5.1210,0.0511,0.0210,0.0391,0.068
5.1330,-0.2736,0.1928,0.0059,0.335
5.1420,-0.5641,-0.0504,-0.2280,0.610
5.1530,-0.4749,0.0220,-0.3167,0.571
5.1610,-0.0206,0.2749,-0.4676,0.543
5.1760,0.2193,0.1006,-0.4265,0.490
5.1810,0.3339,0.0169,-0.0759,0.343
5.1930,0.1283,-0.1277,0.0997,0.207
5.2000,0.0656,-0.1765,0.2014,0.276
5.2140,0.0882,-0.0786,0.3988,0.416
5.2200,0.0230,0.0242,0.4508,0.452
5.2340,-0.0097,0.0796,0.4269,0.434
5.2600,-0.0161,0.0866,0.4255,0.435
5.3060,0.1235,0.0236,0.2440,0.275
5.3090,0.1970,-0.0375,0.0919,0.221
5.3100,0.2490,-0.0499,-0.0095,0.254
5.3110,0.2041,-0.0242,-0.0855,0.223
5.3110,0.1173,0.0186,-0.1349,0.180
5.3120,-0.0003,0.0521,-0.1339,0.144
5.3160,-0.0017,0.0623,-0.1462,0.159
5.3380,-0.0248,0.0028,-0.1909,0.193
5.3390,0.0010,-0.0516,-0.2823,0.287
5.3470,0.0306,-0.0674,-0.3176,0.326
5.3520,0.0286,-0.0343,-0.2587,0.263
5.3610,0.0181,-0.0200,-0.2324,0.234
5.3720,-0.0021,-0.0153,-0.1621,0.163
5.3850,-0.0157,-0.0489,-0.0836,0.098
5.3920,0.0287,-0.0733,0.0702,0.105
5.4010,0.0943,-0.0760,0.1461,0.190
5.4120,0.1224,-0.0674,0.0844,0.163
5.4210,0.1223,-0.0457,0.0014,0.131
5.4320,0.0893,-0.0521,-0.0369,0.110
5.4490,0.0442,-0.0484,-0.0523,0.084
5.4540,-0.0145,-0.0567,-0.0521,0.078
5.4660,-0.0240,-0.0374,-0.0303,0.054
5.4720,-0.0183,-0.0194,-0.0695,0.074
5.4810,-0.0428,-0.0098,-0.1195,0.127
5.5040,-0.0735,-0.0372,-0.1287,0.153
5.5050,-0.0506,-0.0609,-0.1297,0.152
5.5140,-0.0151,-0.0708,-0.1333,0.152
5.5210,0.0644,-0.0932,-0.0568,0.127
5.5360,0.0719,-0.0895,-0.0068,0.115
5.5470,0.0040,-0.0372,0.0539,0.066
5.5530,-0.0669,-0.0172,0.0201,0.072
5.5740,-0.0946,-0.0129,-0.0748,0.121
5.5750,-0.0866,-0.0496,-0.1168,0.154
5.5850,-0.0713,-0.0612,-0.0787,0.123
5.5950,-0.0310,-0.0306,-0.0155,0.046
5.6040,-0.0064,-0.0344,0.0105,0.036
5.6210,0.0343,-0.0630,0.0196,0.074
5.6210,0.0595,-0.0443,0.0241,0.078
5.6390,0.0774,-0.0393,0.0334,0.093
5.6400,0.0414,-0.0212,0.0045,0.047
5.6570,0.0093,-0.0318,-0.0724,0.080
5.6620,0.0137,-0.0256,-0.1229,0.126
5.6710,0.0194,-0.0116,-0.1784,0.180
5.6930,0.0066,0.0121,-0.1623,0.163
5.6940,0.0233,-0.0071,-0.1034,0.106
5.7040,0.0815,0.0148,0.0511,0.097
5.7120,0.1179,0.0431,0.1432,0.190
5.7200,0.0996,0.0271,0.1575,0.188
5.7360,0.0461,-0.0272,0.1170,0.129
5.7430,0.0044,-0.0641,0.0780,0.101
5.7620,-0.0099,-0.0573,0.0801,0.099
5.7630,-0.0347,-0.0253,0.1507,0.157
5.7830,-0.0484,0.0514,0.1281,0.146
5.7850,-0.0961,0.1017,0.0339,0.144
5.7950,-0.1078,0.1133,-0.1104,0.191
5.8010,-0.0682,0.0496,-0.2294,0.244
5.8200,-0.0099,-0.0206,-0.2793,0.280
5.8230,0.0893,-0.0597,-0.1597,0.192
5.8310,0.1270,0.0156,0.0133,0.129
5.8470,0.0693,0.1080,0.2003,0.238
5.8510,-0.0152,0.1349,0.3164,0.344
5.8690,0.0078,0.0867,0.3177,0.329
5.8710,0.0935,-0.0022,0.2153,0.235
5.8800,0.1465,-0.0713,0.1229,0.204
5.9130,0.1083,-0.0983,0.0584,0.158
5.9130,-0.0039,-0.0389,0.0599,0.072
5.9290,-0.0528,0.0341,0.1346,0.149
5.9310,-0.0087,0.0390,0.0943,0.102
5.9330,-0.0105,-0.0298,-0.0285,0.043
5.9440,-0.0612,-0.1088,-0.0686,0.142
5.9510,-0.0434,-0.1122,-0.0595,0.134
5.9620,-0.0410,-0.0460,-0.0568,0.084
5.9770,-0.0139,-0.0113,-0.0362,0.040
5.9800,-0.0242,-0.0371,-0.0936,0.104
5.9960,-0.0463,-0.0490,-0.1032,0.123
6.0130,-0.0245,-0.0688,-0.1164,0.137
6.0160,0.0277,-0.0214,-0.1332,0.138
6.0270,0.0473,-0.0128,-0.1549,0.162
6.0320,0.0912,-0.0341,-0.2002,0.223
6.0430,0.0930,-0.0625,-0.2730,0.295
6.0560,0.1052,-0.0512,-0.2402,0.267
6.0600,0.0721,-0.0147,-0.1236,0.144
6.0790,0.0939,0.0664,0.0059,0.115
6.0800,0.0961,0.0641,0.0058,0.116
6.0910,0.0347,-0.0184,-0.0017,0.039
6.1010,-0.0035,-0.0838,0.0529,0.099
6.1110,0.0355,-0.0492,0.1671,0.178
6.1200,0.0550,-0.0143,0.2498,0.256
6.1320,0.0741,0.0031,0.2489,0.260
6.1400,0.0100,-0.0060,0.1728,0.173
6.1550,0.0281,-0.0194,0.1078,0.113
6.1680,0.0632,-0.0116,0.0107,0.065
6.1720,0.0559,0.0293,-0.0133,0.065
6.1810,-0.0000,0.0450,-0.0146,0.047
6.1910,-0.0075,0.0550,0.0009,0.055
6.2000,0.0037,0.0195,-0.0148,0.025
6.2110,0.0544,-0.0038,-0.0365,0.066
6.2200,0.1183,-0.0257,-0.0199,0.123
6.2320,0.1268,-0.0245,-0.0022,0.129
6.2400,0.0514,0.0051,-0.0109,0.053
6.2530,-0.0221,0.0287,-0.0113,0.038
6.2670,-0.0273,0.0329,0.0326,0.054
6.2710,0.0235,0.0301,0.0576,0.069
6.2810,0.0368,-0.0487,-0.0120,0.062
6.2920,0.0561,-0.0427,-0.0097,0.071
6.3010,0.0538,-0.0425,-0.0097,0.069
6.3130,0.0288,-0.0096,0.0608,0.068
6.3200,-0.0152,-0.0093,-0.0004,0.018
6.3310,-0.0390,-0.0251,-0.0638,0.079
6.3400,0.0383,-0.0377,-0.0746,0.092
6.3510,0.0599,-0.0357,-0.1045,0.126
6.3630,0.0150,-0.0364,-0.0628,0.074
6.3700,0.0228,-0.0130,-0.0056,0.027
6.3800,0.0240,-0.0038,0.0046,0.025
6.3910,-0.0060,-0.0024,0.0195,0.021
6.4010,-0.0022,-0.0251,0.1110,0.114
6.4140,-0.0131,-0.0218,0.1715,0.173
6.4210,-0.0297,-0.0290,0.1759,0.181
6.4330,-0.0263,-0.0302,0.1762,0.181
6.4420,-0.1355,-0.0133,-0.1225,0.183
6.4530,-0.1054,0.0035,-0.2079,0.233
6.4610,-0.0362,0.0071,-0.2574,0.260
6.4710,0.0412,0.0109,-0.2737,0.277
6.4800,0.1002,0.0216,-0.2173,0.240
6.4910,0.0320,-0.0029,-0.2093,0.212
6.5060,-0.0231,-0.0149,-0.1539,0.156
6.5110,-0.0034,0.0042,0.0975,0.098
6.5200,-0.0255,-0.0206,0.1990,0.202
6.5330,-0.0377,-0.0344,0.1844,0.191
6.5400,0.0050,-0.0319,0.1855,0.188
6.5510,0.0804,-0.0028,0.1943,0.210
6.5630,0.0739,0.0100,0.1817,0.196
6.5720,0.0098,0.0167,0.1275,0.129
6.5800,-0.0097,0.0239,0.1659,0.168
6.5920,0.0298,0.0762,0.1707,0.189
6.6010,0.0492,0.0613,0.1312,0.153
6.6130,0.0205,0.0043,0.0691,0.072
6.6230,0.0198,-0.0319,0.0416,0.056
6.6330,-0.0017,-0.0519,-0.0148,0.054
6.6400,0.0265,-0.0093,0.0150,0.032
6.6510,0.0574,0.0344,0.0591,0.089
6.6600,0.0818,0.0384,0.0550,0.106
6.6710,0.0996,0.0570,-0.0257,0.118
6.6810,0.0707,0.0364,-0.0727,0.108
6.6910,0.0802,0.0072,-0.0668,0.105
6.7010,0.1503,0.0139,0.0135,0.152
6.7110,0.1345,0.0494,0.0006,0.143
6.7200,0.1255,0.0382,0.0618,0.145
6.7360,0.0799,0.0527,0.1027,0.140
6.7400,0.0198,0.0280,0.1484,0.152
6.7530,0.0029,0.0213,0.1165,0.118
6.7610,0.0197,-0.0077,0.1113,0.113
6.7730,0.0216,-0.0354,0.1423,0.148
6.7820,0.0166,-0.0050,0.0396,0.043
6.7950,-0.0006,0.0138,-0.0711,0.072
6.8000,-0.0763,-0.0362,-0.1744,0.194
6.8130,-0.0729,-0.0769,-0.2773,0.297
6.8210,0.0349,0.0429,-0.3692,0.373
6.8320,0.1410,0.1004,-0.5207,0.549
6.8400,0.2380,-0.0326,-0.5176,0.571
6.8560,0.1800,-0.0286,-0.2869,0.340
6.8730,0.1086,-0.0255,-0.1565,0.192
6.8790,0.2183,0.0177,-0.2379,0.323
6.8810,0.3849,0.0634,-0.2043,0.440
6.8940,0.3169,0.0173,-0.1416,0.347
6.9020,0.2354,0.1182,0.0791,0.275
6.9120,0.0376,0.0383,0.2661,0.271
6.9200,0.1213,0.1995,-0.0811,0.247
6.9340,0.0768,0.2918,-0.3809,0.486
6.9410,-0.0609,0.4708,-0.3400,0.584
6.9520,-0.1564,0.3444,-0.3768,0.534
6.9620,-0.3122,0.1329,-0.4494,0.563
6.9710,-0.5363,-0.0194,-0.5815,0.791
6.9820,-1.6188,-0.3553,-0.5301,1.740
6.9920,-2.6606,-0.5912,-0.0341,2.726
7.0010,-1.8633,-0.5999,0.0146,1.958
7.0140,-0.9147,-0.5735,0.1650,1.092
7.0200,-0.4254,-0.4630,0.3904,0.740
7.0310,-0.3678,-0.2618,0.6800,0.816
7.0400,-0.6014,-0.0602,0.8415,1.036
7.0520,-0.8833,0.1073,0.8133,1.205
7.0610,-0.9457,0.1614,0.4991,1.081
7.0720,-0.8873,0.0779,-0.0258,0.891
7.0810,-0.8286,-0.0647,-0.4672,0.953
7.0920,-0.8160,-0.2743,-0.8369,1.201
7.1000,-0.7691,-0.4529,-1.0164,1.353
7.1140,-0.7064,-0.5876,-1.1467,1.469
7.1200,-0.6647,-0.6577,-1.2766,1.582
7.1320,-0.5263,-0.7187,-1.4661,1.716
7.1420,-0.1160,-0.5860,-1.8614,1.955
7.1540,-0.1027,-0.5796,-1.8603,1.951
7.1750,0.6018,-0.2351,-2.5403,2.621
7.1760,2.2410,0.7764,-3.6148,4.323
7.1840,4.2460,1.6562,-2.0357,4.992
7.1960,6.2416,2.4389,2.3730,7.109
7.2040,6.2965,3.7269,5.8575,9.373
7.2190,-0.4099,3.2300,1.7433,3.693
7.2260,-1.8499,1.5564,-3.1805,3.995
7.2340,-2.3556,-0.6255,-4.3935,5.024
7.2410,-2.7175,-1.7358,-2.8199,4.284
7.2540,-1.7657,-1.8008,-0.2107,2.531
7.2620,-1.2806,-1.3959,0.2390,1.909
7.2750,-1.0794,-1.0922,-0.5368,1.627
7.2800,-0.5216,-0.6380,-0.6499,1.050
7.2910,-0.1077,-0.7790,-0.0475,0.788
7.3000,0.0219,-1.3683,0.7950,1.583
7.3140,0.8629,-1.2877,1.3376,2.047
7.3220,1.2565,0.0071,1.2811,1.794
7.3320,-0.2865,0.5757,0.8109,1.035
7.3410,-2.8251,1.2617,0.4375,3.125
7.3530,-3.7390,1.7431,-0.9356,4.230
7.3600,-3.1787,1.3586,-2.4624,4.244
7.3720,-2.8412,0.9787,-3.1571,4.359
7.3800,-1.9454,0.6747,-4.1504,4.633
7.3920,-1.1974,0.8722,-4.1373,4.395
7.4010,-0.3043,1.1092,-4.1920,4.347
7.4130,-0.0445,1.0259,-4.1215,4.248
7.4200,0.7113,-0.0671,-4.8827,4.935
7.4330,0.6770,-0.8989,-4.3831,4.525
7.4490,-0.5224,-2.1992,-3.4275,4.106
7.4520,-0.8384,-3.0276,-1.9068,3.675
7.4630,-0.3574,-3.4552,-0.9164,3.593
7.4710,0.3419,-3.4110,0.1269,3.430
7.4810,1.1631,-3.2190,-0.0293,3.423
7.4910,2.2020,-3.1276,-0.8015,3.908
7.5010,3.4049,-3.2651,-1.9873,5.119
7.5110,3.7503,-3.5106,-1.9526,5.496
7.5200,4.0813,-3.5203,-1.6892,5.648
7.5350,3.1915,-4.2057,-2.0440,5.661
7.5410,2.3390,-4.2536,-2.2495,5.350
7.5640,1.8190,-4.4701,-2.1253,5.273
7.5690,2.1048,-4.7334,-1.6751,5.444
7.5740,2.5220,-4.9792,-1.1800,5.705
7.5880,3.0241,-5.0987,-0.9011,5.996
7.5920,3.4599,-5.1477,-0.6102,6.232
7.6000,3.7666,-5.1724,-0.7596,6.443
7.6120,3.9841,-5.4830,-1.0620,6.860
7.6200,3.4471,-5.8902,-0.6979,6.860
7.6310,2.5672,-6.3642,-0.2192,6.866
7.6400,1.5957,-6.7373,0.4789,6.940
7.6520,0.5758,-6.9632,0.9146,7.047
7.6620,-0.0438,-6.6821,0.9335,6.747
7.7000,-0.9173,-6.1788,1.0950,6.342
7.7010,-1.6019,-5.5098,1.0083,5.826
7.7020,-1.9217,-4.8421,0.2057,5.214
7.7020,-2.2345,-4.4388,-0.4664,4.991
7.7200,-2.5934,-4.2899,-0.8878,5.091
7.7210,-2.9658,-4.2384,-1.0794,5.284
7.7330,-3.5072,-4.0609,-0.9129,5.443
7.7520,-4.0555,-3.6192,-0.4299,5.453
7.7560,-4.6420,-3.0084,0.3187,5.541
7.7680,-5.1079,-2.6017,0.8216,5.791
7.7740,-5.5634,-2.3682,1.1840,6.161
7.7830,-5.8678,-2.1572,1.2982,6.385
7.7910,-5.9162,-1.9323,1.2495,6.348
7.8030,-5.9273,-1.6845,1.1166,6.262
7.8220,-6.0782,-1.3639,1.1079,6.327
7.8250,-6.2209,-0.9854,0.9780,6.374
7.8340,-6.6017,-0.7141,0.5748,6.665
7.8400,-7.4795,0.0898,-3.6698,8.332
7.8530,-7.4320,1.6100,-6.4759,9.988
7.8600,-7.7103,2.5245,-3.5828,8.869
7.8720,-8.3866,2.0468,-6.1282,10.587
7.8830,-7.3451,2.1829,-8.2413,11.253
7.8920,-6.9039,2.2499,-6.5074,9.750
7.9020,-6.7190,1.8627,-0.9113,7.032
7.9130,-6.8381,1.3811,2.5711,7.435
7.9200,-5.7915,1.2528,2.9485,6.619
7.9480,-4.8435,1.4841,1.8106,5.380
7.9500,-4.4563,0.8876,1.3100,4.729
7.9520,-4.0043,0.9256,0.2603,4.118
7.9630,-3.0797,1.7248,-3.4736,4.952
7.9730,-2.7779,1.4999,-3.0648,4.400
7.9920,-2.7097,1.1790,-1.3317,3.241
7.9930,-4.0005,0.2364,0.8510,4.097
8.0000,-4.6430,-0.0799,2.0838,5.090
8.0150,-5.1795,-0.0893,1.6210,5.428
8.0200,-5.2919,0.2301,0.1659,5.300
8.0330,-4.6132,0.4849,-0.9878,4.743
8.0400,-3.6650,0.9094,-1.9001,4.227
8.0530,-2.8679,0.8656,-1.8186,3.505
8.0610,-3.2399,0.8505,-0.8912,3.466
8.0740,-3.1507,1.0313,0.4844,3.350
8.0830,-2.6131,1.1824,1.2637,3.134
8.0920,-2.2620,1.0980,1.7752,3.078
8.1020,-0.5774,1.3409,0.3870,1.510
8.1110,0.6025,1.5658,0.4967,1.750
8.1210,1.1180,1.7672,-0.2229,2.103
8.1360,0.4300,2.0720,-0.1446,2.121
8.1400,0.3185,1.9577,0.4982,2.045
8.1530,3.9533,2.2249,-1.5266,4.786
8.1600,3.1524,2.4219,-1.0426,4.110
8.1720,4.3104,2.2005,-0.6093,4.878
8.1830,4.3190,2.2665,-0.9757,4.974
8.1910,2.5950,2.2357,-0.1431,3.428
8.2020,2.7170,2.2031,0.5791,3.546
8.2180,4.1752,2.4557,1.0167,4.949
8.2230,3.2992,1.8714,1.0199,3.928
8.2340,1.6969,1.5988,1.8279,2.963
8.2400,3.4729,-0.0914,0.2542,3.483
8.2620,4.1806,-1.4261,1.2439,4.589
8.2630,2.6164,0.7438,-0.4590,2.759
8.2710,4.8933,0.5143,-2.4606,5.501
8.2890,3.3071,0.2169,-0.7415,3.396
8.2920,2.0202,-0.1448,-0.5687,2.104
8.3000,1.4490,-0.4398,0.4975,1.594
8.3110,1.5122,-0.0002,0.9715,1.797
8.3200,1.1112,-0.2249,-0.4848,1.233
8.3380,1.7634,-0.1087,-1.1940,2.132
8.3410,1.8297,0.3844,-0.0163,1.870
8.3510,0.4554,-0.9019,-1.3911,1.719
8.3610,-0.7079,-0.9538,-0.6648,1.361
8.3710,-2.2178,-0.7518,0.3303,2.365
8.3840,-2.8493,-0.8040,-0.3834,2.985
8.3920,-2.4838,-1.5220,0.4296,2.945
8.4010,-1.5767,-1.9174,0.3799,2.511
8.4110,-1.8908,-2.3194,-0.0440,2.993
8.4190,-1.8388,-2.4321,-0.7315,3.136
8.4330,-1.4221,-2.3760,-0.6710,2.849
8.4410,-0.6606,-1.9777,-0.0171,2.085
8.4520,0.3398,-0.4058,-1.3153,1.418
8.4600,0.6032,0.7360,0.5759,1.112
8.4720,-0.4630,1.0356,0.9672,1.491
8.4820,0.6195,1.7702,-0.9696,2.111
8.4910,0.4224,1.7786,-0.5466,1.908
8.5020,-1.1120,2.2962,0.7643,2.663
8.5110,-1.5364,2.7575,0.2245,3.165
8.5230,-0.9227,2.8323,-1.7437,3.452
8.5330,-1.2719,1.9538,-0.9640,2.523
8.5430,-1.7896,0.5987,-0.1532,1.893
8.5530,-1.7173,-0.3212,-0.3549,1.783
8.5610,-1.6880,-0.7428,-0.5677,1.930
8.5710,-1.7228,-0.6974,-0.5330,1.934
8.5820,0.1181,2.4844,0.9746,2.671
8.5920,1.5298,2.0587,1.4765,2.959
8.6010,1.7892,1.4198,0.6217,2.367
8.6120,2.3899,1.3752,-0.4522,2.794
8.6200,3.3567,1.0948,-0.8452,3.631
8.6470,3.2733,1.1943,-0.8832,3.595
8.6530,3.4396,-0.7624,0.5515,3.566
8.6600,3.0510,-1.5315,0.2101,3.420
8.6640,2.7402,-1.7780,-0.0004,3.266
8.6750,3.4831,-1.3450,0.6090,3.783
8.6830,4.8687,-0.9603,0.7345,5.017
8.6930,5.8312,-0.5056,-0.6788,5.892
8.7030,6.4501,-0.1701,-2.0252,6.763
8.7130,6.8346,0.1010,-1.9715,7.114
8.7220,6.3561,-0.0005,-0.7714,6.403
8.7340,1.0479,-0.3913,0.9783,1.486
8.7430,-4.9526,1.4569,1.2387,5.309
8.7590,-3.4892,1.7417,1.3566,4.129
8.7620,-0.1660,1.3606,1.0889,1.751
8.7720,2.5466,1.2074,1.8806,3.388
8.7850,2.8965,-0.5076,1.7979,3.447
8.7940,3.1618,-0.1905,-1.1329,3.364
8.8020,2.2144,0.5778,-2.8842,3.682
8.8130,0.0658,1.0944,-3.8742,4.026
8.8250,-0.0897,2.3961,-2.2494,3.288
8.8330,-0.2277,2.4770,-2.2900,3.381
8.8420,-3.4091,1.1318,3.3689,4.925
8.8530,-4.9143,-1.6783,5.5121,7.573
8.8640,-4.3286,-2.7831,4.9106,7.113
8.8800,-2.7402,-2.1216,1.3315,3.712
8.8830,-2.0333,-0.7837,-1.0545,2.421
8.8930,-0.8373,0.5485,-1.7703,2.034
8.9040,0.0621,1.3240,-1.7848,2.223
8.9120,0.8938,1.8088,-1.8753,2.755
8.9210,0.8296,1.9710,-1.6452,2.698
8.9340,0.7157,2.7016,-0.9876,2.964
8.9410,0.9734,3.1064,0.1394,3.258
8.9520,1.7888,2.7237,1.4618,3.571
8.9610,1.5726,2.0900,2.1443,3.382
8.9840,1.0828,1.0696,1.8631,2.406
8.9880,1.1177,-0.2884,0.8414,1.428
8.9920,0.5853,0.0007,2.2297,2.305
9.0020,0.0693,-2.6400,-1.1149,2.867
9.0120,-0.1637,-5.4855,-0.4209,5.504
9.0210,1.5570,-9.8916,0.7363,10.040
9.0340,2.9789,-12.8306,1.2105,13.227
9.0420,4.6250,-14.4643,0.9955,15.218
9.0530,2.3116,-9.8820,-0.9926,10.197
9.0690,-2.1841,-4.0054,-2.2646,5.093
9.0730,-0.6794,-1.1131,-2.0950,2.468
9.0980,4.3634,2.4174,-1.9296,5.348
9.1020,3.3271,2.0164,-1.3325,4.112
9.1040,1.5935,0.0906,-0.7820,1.777
9.1120,1.2841,-0.5459,-0.4656,1.471
9.1220,1.3099,-0.3102,0.1474,1.354
9.1370,0.6614,-0.4001,0.7444,1.073
9.1410,0.4494,-0.3399,0.9576,1.111
9.1570,0.6131,-0.1607,0.7334,0.969
9.1630,1.0968,-0.0378,0.0267,1.098
9.1790,1.1596,0.0564,-0.4652,1.251
9.1800,1.1681,0.5097,-0.7824,1.495
9.1910,0.9751,0.8721,-0.6964,1.482
9.2000,0.9054,-0.0118,-0.2729,0.946
9.2120,0.7527,-0.3085,0.4043,0.908
9.2210,0.0684,-0.0244,1.1739,1.176
9.2380,-0.9963,0.0503,0.9642,1.387
9.2420,-1.1621,-0.0558,0.7195,1.368
9.2540,-0.0885,0.1908,0.1154,0.240
9.2710,0.4751,0.0499,-0.0984,0.488
9.2710,0.9124,0.3596,-0.2580,1.014
9.2800,1.0592,0.4142,-0.5826,1.278
9.2960,0.5990,0.1395,-0.3333,0.700
9.3000,-0.2459,-0.0355,0.3945,0.466
9.3110,-0.2412,-0.3480,1.7802,1.830
9.3210,0.3802,-0.8171,1.4860,1.738
9.3320,1.0996,-0.2172,0.4262,1.199
9.3400,1.6972,-0.1834,0.2352,1.723
9.3620,2.3600,-0.5135,0.0911,2.417
9.3690,2.9532,-0.1914,-0.9767,3.116
9.3720,2.6491,0.2751,-1.5589,3.086
9.3840,2.3011,0.0673,-1.0488,2.530
9.3930,1.7937,-0.2654,0.1066,1.816
9.4020,1.4432,-0.1287,-0.2750,1.475
9.4120,0.4060,0.4125,0.0889,0.586
9.4200,-1.3876,0.0124,3.6390,3.895
9.4350,-2.2410,-0.2959,3.8144,4.434
9.4400,-0.2849,0.7782,1.3550,1.588
9.4530,0.5152,0.7248,-0.3136,0.943
9.4600,-0.0296,0.5892,-0.8992,1.075
9.4710,-0.5177,0.4005,-0.8322,1.059
9.4830,-0.5985,0.4117,-0.6269,0.960
9.4910,-0.1528,0.4634,-0.4475,0.662
9.5010,0.4393,0.5569,-0.3316,0.783
9.5110,0.6636,0.8214,-0.3301,1.106
9.5200,0.8467,1.0463,-0.1470,1.354
9.5320,0.8030,1.2578,-0.1378,1.499
9.5410,0.9473,1.2650,-0.2616,1.602
9.5520,1.3541,1.3715,-0.3306,1.955
9.5600,2.0094,1.3959,-0.5239,2.502
9.5710,2.1069,1.3262,-0.6225,2.566
9.5790,1.7661,0.7319,-0.6913,2.033
9.5910,-0.7032,-1.2737,-0.8986,1.710
9.6020,-4.7828,-4.4253,-0.8821,6.575
9.6110,-8.3776,-7.0177,-0.5167,10.941
9.6200,-0.6343,-3.7553,0.2937,3.820
9.6310,6.1764,-0.3919,1.2111,6.306
9.6540,6.2579,2.0484,0.9208,6.649
9.6560,2.8264,1.8095,-0.0410,3.356
9.6630,0.6148,0.9752,-0.4107,1.224
9.6720,1.1947,1.5727,1.4444,2.447
9.6810,-0.0231,3.6814,4.0831,5.498
9.6920,-1.8739,3.6438,4.2541,5.906
9.7030,-1.2959,1.8733,2.7976,3.608
9.7110,-0.4090,0.4507,1.6150,1.726
9.7230,-1.4683,0.4055,0.7985,1.720
9.7400,-2.3904,0.4745,2.1087,3.223
9.7440,-2.9381,0.3405,4.1700,5.113
9.7570,-2.5509,-1.3832,4.3720,5.247
9.7670,-1.1948,-1.8882,2.7470,3.541
9.7740,-1.5467,0.2033,3.6634,3.982
9.7850,0.7516,0.3838,-11.1958,11.228
9.8010,0.6517,-0.5645,-9.2336,9.274
9.8030,-0.3248,-1.3751,-4.9852,5.182
9.8130,-0.1220,-1.9560,-1.6957,2.592
9.8200,0.0890,-1.2507,0.9078,1.548
9.8310,-1.0052,-1.1257,1.0036,1.812
9.8400,-0.2010,-0.8500,0.6702,1.101
9.8520,1.1359,-0.1007,0.4992,1.245
9.8640,2.6202,0.1809,0.4747,2.669
9.8720,3.7288,0.1952,0.0779,3.735
9.8840,4.0866,0.1362,0.0122,4.089
9.8910,3.4427,0.0637,-0.3679,3.463
9.9020,2.0209,0.2763,-0.4537,2.090
9.9110,0.7162,0.3805,-1.3793,1.600
9.9200,0.2851,-0.0675,-1.3654,1.396
9.9310,-0.6862,-0.0854,-0.5334,0.873
9.9400,-1.0405,-0.5484,-0.7851,1.414
9.9520,0.5196,-1.9647,-1.0137,2.271
9.9600,1.3028,-1.9731,-1.5781,2.843
9.9730,1.9204,-0.3670,-3.3883,3.912
9.9820,0.9098,0.3500,-3.7217,3.847
9.9930,-0.5523,0.5983,-1.5760,1.774
10.0020,-2.2503,2.4585,0.4788,3.367
10.0120,-4.1268,2.6128,2.5762,5.522
10.0210,-3.9611,0.8655,4.0192,5.709
10.0320,-2.6319,-2.8187,4.9282,6.258
10.0450,-2.0387,-2.2313,5.2886,6.091
10.0540,3.4044,-0.1563,3.8171,5.117
10.0610,3.0991,-1.7197,2.0425,4.091
10.0850,4.4284,-0.3175,1.0170,4.555
10.0860,4.9224,0.3114,-1.9092,5.289
10.0920,4.4393,0.7775,-3.7149,5.841
10.1050,3.8654,0.6392,-4.1805,5.729
10.1130,3.0211,0.3433,-3.4151,4.572
10.1220,2.0967,0.1163,-2.6655,3.393
10.1340,0.9180,-0.4583,-2.1656,2.396
10.1400,0.0531,-0.8494,-1.5386,1.758
10.1520,0.1475,-0.7260,-1.0813,1.311
10.1600,1.1773,-0.3346,-0.0514,1.225
10.1710,1.7190,0.2344,0.7040,1.872
10.1810,1.7417,0.2434,1.6751,2.429
10.1970,1.5522,-0.0624,2.0871,2.602
10.2040,1.1507,-0.4655,2.0274,2.377
10.2130,1.0044,-0.8268,2.1255,2.492
10.2210,0.9972,-1.2385,1.6284,2.276
10.2320,1.1960,-1.3337,1.2032,2.158
10.2400,0.7457,-1.0849,0.2927,1.349
10.2510,1.0505,-0.8347,-0.9768,1.660
10.2600,2.5280,0.4392,-3.5139,4.351
10.2750,2.2648,0.8056,-3.6194,4.345
10.2800,2.8388,-0.1588,-2.1483,3.564
10.2980,2.2176,-0.4552,-0.5360,2.326
10.3040,1.8520,-0.2500,0.5199,1.940
10.3110,0.3186,0.1512,1.0115,1.071
10.3230,-1.6373,1.6930,4.1143,4.741
10.3310,-3.9024,3.0374,5.6061,7.475
10.3410,-5.3666,2.7821,4.6626,7.634
10.3540,-6.4134,1.4816,3.7328,7.567
10.3630,-6.9087,0.3885,2.8347,7.478
10.3750,-7.5533,-0.4901,2.0009,7.829
10.3810,-7.5893,-0.9313,1.3787,7.770
10.3940,-6.9898,-1.6283,0.0495,7.177
10.4040,-5.7240,-2.2558,-1.9759,6.462
10.4110,-3.7290,-1.9634,-3.6835,5.597
10.4220,-2.3306,-0.9959,-4.0525,4.780
10.4310,-1.6099,-0.2237,-3.5368,3.892
10.4400,-1.4200,-0.1620,-2.5928,2.961
10.4560,-1.3409,-0.6251,-1.2792,1.956
10.4610,-0.7602,-0.8929,-0.0290,1.173
10.4790,0.3165,-0.9639,1.3204,1.665
10.4820,1.1252,-0.6142,2.1954,2.542
10.4920,2.2770,-0.5472,2.5287,3.447
10.5040,2.7913,-0.9510,2.1316,3.639
10.5130,2.8800,-1.2238,1.3010,3.389
10.5220,3.2381,-0.8797,0.4673,3.388
10.5330,4.5034,0.0505,-0.9122,4.595
10.5400,5.7687,0.9562,-2.4381,6.335
10.5550,5.9728,1.5243,-3.5034,7.090
10.5610,5.5081,1.6225,-3.3868,6.667
10.5860,4.5346,1.2843,-2.5399,5.354
10.5870,3.3792,0.7952,-1.6633,3.849
10.5920,2.0040,0.3132,-0.7787,2.173
10.6050,1.0789,0.0672,-0.1948,1.098
10.6120,0.3126,-0.0657,0.1581,0.356
10.6240,-0.2675,-0.1593,0.3416,0.462
10.6360,-0.9291,-0.2550,0.4713,1.073
10.6430,-1.3002,-0.2690,0.5480,1.436
10.6550,-1.4085,-0.3050,0.5390,1.539
10.6630,-1.3546,-0.3335,0.4615,1.469
10.6710,-1.2916,-0.4159,0.4050,1.416
10.6820,-1.2683,-0.4867,0.2873,1.389
10.6920,-1.2857,-0.4679,0.1835,1.380
10.7000,-1.1560,-0.2962,0.0733,1.196
10.7110,-0.8122,-0.0934,-0.0030,0.818
10.7270,-0.4191,0.1210,-0.0827,0.444
10.7320,-0.0778,0.2799,-0.1176,0.313
10.7410,0.2217,0.4570,-0.1047,0.519
10.7640,0.4779,0.5505,-0.0471,0.731
10.7710,0.6593,0.5431,0.0142,0.854
10.7740,0.6799,0.5459,0.0021,0.872
10.7840,0.7660,0.3326,-0.0464,0.836
10.7930,0.6929,0.2323,-0.2227,0.764
10.8030,0.4881,0.1168,-0.3922,0.637
10.8110,0.2175,0.0329,-0.4872,0.535
10.8210,-0.0778,-0.0120,-0.4806,0.487
10.8320,-0.2791,-0.0441,-0.4149,0.502
10.8420,-0.3869,-0.0214,-0.2444,0.458
10.8650,-0.4711,0.0455,-0.0838,0.481
10.8650,-0.6462,0.1136,0.0372,0.657
10.8720,-0.8162,0.1265,0.1129,0.834
10.8810,-0.9686,0.0663,0.1146,0.978
10.8930,-1.1203,0.0253,0.0691,1.123
10.9050,-1.2784,-0.0010,0.0178,1.279
10.9130,-1.3560,0.0561,-0.0238,1.357
10.9240,-1.3258,0.0322,-0.0051,1.326
10.9310,-1.0826,0.0025,0.0553,1.084
10.9440,-0.7543,0.0535,0.1035,0.763
10.9540,-0.4096,0.0839,0.1519,0.445
10.9610,-0.1247,0.0809,0.1819,0.235
10.9750,0.1815,0.0742,0.1456,0.244
10.9820,0.4332,0.0736,0.1178,0.455
11.0030,0.6795,0.0602,0.0807,0.687
11.0040,0.8752,-0.0257,0.0531,0.877
11.0130,1.0536,-0.0270,0.0079,1.054
11.0240,1.1195,0.0619,-0.0047,1.121
11.0310,1.1091,0.2204,-0.0944,1.135
11.0410,1.1317,0.3516,-0.1603,1.196
11.0550,1.0617,0.4110,-0.2283,1.161
11.0600,0.9081,0.4000,-0.1985,1.012
11.0750,0.8755,0.3956,-0.1937,0.980
11.0810,0.5182,0.2596,0.1756,0.606
11.0920,0.4871,0.2554,0.1846,0.580
11.1010,0.1614,0.1930,0.5722,0.625
11.1110,-0.0277,0.1573,0.6635,0.682
11.1220,-0.1909,0.1063,0.6523,0.688
11.1310,-0.2983,0.0306,0.5451,0.622
11.1400,-0.3823,-0.0267,0.4103,0.561
11.1590,-0.4081,-0.0884,0.1966,0.462
11.1620,-0.4073,-0.0933,0.0199,0.418
11.1790,-0.3926,-0.0426,-0.1747,0.432
11.1810,-0.3397,-0.0106,-0.2638,0.430
11.1930,-0.3351,-0.0105,-0.2743,0.433
11.2000,-0.0947,0.0761,-0.2511,0.279
11.2110,0.0541,0.1018,-0.1682,0.204
11.2220,0.2039,0.0979,-0.0851,0.242
11.2310,0.2806,0.1118,-0.0155,0.302
11.2410,0.3125,0.1661,0.0224,0.355
11.2520,0.3140,0.1664,0.0221,0.356
11.2650,0.2571,0.1675,0.0638,0.313
11.2970,0.1854,0.1336,0.1049,0.251
11.2970,0.1079,0.0984,0.1440,0.205
11.2980,0.0217,0.0847,0.1289,0.156
11.3000,-0.0593,0.0818,0.1239,0.160
11.3110,-0.0809,0.0909,0.0963,0.155
11.3230,-0.0393,0.0713,0.0740,0.110
11.3320,0.0070,0.0232,0.0558,0.061
11.3430,0.0613,0.0111,0.0095,0.063
11.3620,0.1245,0.0302,0.0156,0.129
11.3650,0.1244,0.0960,-0.0082,0.157
11.3740,0.1339,0.1031,-0.0005,0.169
11.3820,0.1609,0.1378,-0.0487,0.217
11.3920,0.1745,0.1401,-0.0688,0.234
11.4000,0.1575,0.1567,-0.0897,0.240
11.4120,0.1698,0.1397,-0.1064,0.244
11.4210,0.1395,0.1298,-0.1117,0.221
11.4320,0.1013,0.1199,-0.0778,0.175
11.4410,0.0854,0.0861,-0.0009,0.121
11.4520,0.0825,0.0857,0.0012,0.119
11.4610,0.0328,0.0375,0.1054,0.117
11.4980,0.0301,0.0372,0.1076,0.118
11.5030,-0.0823,0.0549,0.0612,0.116
11.5050,-0.0864,0.0259,0.0330,0.096
11.5070,-0.0911,0.0018,0.0209,0.093
11.5120,-0.0766,0.0114,0.0351,0.085
11.5210,-0.0195,0.0247,0.0313,0.044
11.5320,0.0367,0.0706,-0.0132,0.081
11.5410,0.0769,0.1141,-0.0487,0.146
11.5550,0.1219,0.1552,-0.0860,0.215
11.5610,0.1860,0.1747,-0.0853,0.269
11.5720,0.2748,0.1547,-0.0603,0.321
11.5820,0.3025,0.1585,-0.0140,0.342
11.5980,0.3058,0.1705,0.0416,0.353
11.6020,0.2344,0.1870,0.0966,0.315
11.6120,0.0947,0.1614,0.0963,0.210
11.6260,0.0067,0.1488,0.0779,0.168
11.6330,-0.0848,0.0667,0.0233,0.110
11.6440,-0.1673,-0.0128,-0.0350,0.171
11.6520,-0.2483,-0.0588,-0.0792,0.267
11.6610,-0.3166,-0.0808,-0.1177,0.347
11.6720,-0.3554,-0.0379,-0.0925,0.369
11.6810,-0.3363,-0.0007,-0.0420,0.339
11.6910,-0.2739,0.0104,0.0515,0.279
11.7010,-0.1861,0.0386,0.1310,0.231
11.7110,-0.1061,0.0645,0.1705,0.211
11.7220,-0.0617,0.1034,0.1237,0.173
11.7310,-0.0495,0.1387,0.0489,0.155
11.7420,-0.0127,0.1547,-0.0455,0.162
11.7530,0.0598,0.1059,-0.1139,0.167
11.7610,0.1427,0.0643,-0.1481,0.215
11.7730,0.1903,0.0790,-0.1428,0.251
11.7800,0.1861,0.1200,-0.1038,0.245
11.8000,0.1849,0.1490,-0.0830,0.252
11.8010,0.1706,0.1372,-0.0328,0.221
11.8120,0.1306,0.1110,0.0261,0.173
11.8220,0.1344,0.1063,0.0756,0.187
11.8310,0.1230,0.1086,0.1370,0.214
11.8420,0.0792,0.1169,0.0911,0.168
11.8510,0.0257,0.1119,0.1091,0.158
11.8670,-0.0240,0.1010,0.0751,0.128
11.8720,-0.0543,0.0877,0.0684,0.124
11.8820,-0.0710,0.0517,0.0554,0.104
11.8910,-0.0859,-0.0082,0.0615,0.106
11.9000,-0.0655,-0.0081,0.0303,0.073
11.9110,-0.0817,0.0352,0.0241,0.092
11.9250,-0.0866,0.1036,0.0441,0.142
11.9320,-0.0912,0.1303,0.0582,0.169
11.9410,-0.0787,0.1342,0.0481,0.163
11.9520,-0.0567,0.0830,0.0035,0.101
11.9610,-0.0323,0.0115,-0.0257,0.043
11.9770,0.0030,0.0082,-0.0793,0.080
11.9820,0.0322,0.0659,-0.1392,0.157
11.9930,0.0148,0.1355,-0.1356,0.192
12.0080,0.0160,0.1762,-0.1132,0.210
12.0130,0.0107,0.1691,-0.0272,0.172
12.0220,0.0182,0.1416,0.0587,0.154
12.0310,-0.0141,0.1022,0.0974,0.142
12.0420,-0.0565,0.0818,0.1432,0.174
12.0530,-0.1108,0.0327,0.1522,0.191
12.0610,-0.1372,0.0242,0.1301,0.191
12.0720,-0.1237,0.0277,0.1092,0.167
12.0860,-0.1154,0.0540,0.0851,0.153
12.0930,-0.0526,0.0852,0.0326,0.105
12.1000,0.0033,0.1187,-0.0057,0.119
12.1280,0.0368,0.1212,-0.0349,0.131
12.1290,0.0619,0.1057,-0.0426,0.130
12.1320,0.1022,0.0962,-0.0370,0.145
12.1430,0.1436,0.0747,-0.0193,0.163
12.1540,0.1843,0.0796,0.0172,0.201
12.1620,0.1980,0.0819,0.0267,0.216
12.1770,0.1571,0.1057,0.0007,0.189
12.1870,0.1118,0.1139,-0.0048,0.160
12.1930,0.0780,0.1446,-0.0127,0.165
12.2010,0.0304,0.1562,-0.0013,0.159
12.2150,0.0103,0.1378,0.0451,0.145
12.2210,-0.0102,0.1074,0.0927,0.142
12.2310,-0.0294,0.1022,0.1454,0.180
12.2440,-0.0784,0.0706,0.1594,0.191
12.2610,-0.1224,0.0462,0.1415,0.193
12.2630,-0.1240,0.0027,0.1191,0.172
12.2710,-0.1452,-0.0144,0.0574,0.157
12.2800,-0.1332,-0.0087,0.0119,0.134
12.2910,-0.0885,0.0258,-0.0651,0.113
12.3000,-0.0598,0.0639,-0.0947,0.129
12.3110,0.0006,0.1070,-0.1289,0.168
12.3210,0.0561,0.1345,-0.1289,0.195
12.3310,0.0802,0.1405,-0.0513,0.170
12.3420,0.1040,0.1370,0.0493,0.179
12.3510,0.1296,0.1430,0.1225,0.229
12.3620,0.1114,0.1490,0.1832,0.261
12.3750,0.0959,0.1332,0.1848,0.247
12.3920,0.0509,0.1148,0.1410,0.189
12.3970,0.0152,0.0784,0.0693,0.106
12.4020,-0.0195,0.0861,0.0298,0.093
12.4130,-0.0494,0.1105,-0.0103,0.121
12.4250,-0.0757,0.1182,0.0302,0.144
12.4310,-0.0920,0.1260,0.0619,0.168
12.4400,-0.0961,0.0885,0.1147,0.174
12.4510,-0.1068,0.0905,0.1692,0.220
12.4600,-0.0845,0.0771,0.1670,0.202
12.4830,-0.0244,0.0709,0.1482,0.166
12.4840,0.0243,0.1030,0.0771,0.131
12.4920,0.0128,0.0764,0.0832,0.114
12.5000,0.0504,0.0881,0.0459,0.111
12.5120,0.0088,0.0986,0.0615,0.117
12.5240,0.0076,0.0983,0.0594,0.115
12.5320,0.0218,0.1446,0.1153,0.186
12.5430,-0.0083,0.1168,0.1726,0.209
12.5520,0.0355,0.0877,0.2109,0.231
12.5610,0.1307,0.1579,0.1402,0.248
12.5720,0.1061,0.1958,0.0775,0.236
12.5840,0.1522,0.2828,0.0008,0.321
12.6090,0.2086,0.3349,-0.0512,0.398
12.6090,0.1799,0.3307,-0.0503,0.380
12.6110,0.0449,0.2402,0.0626,0.252
12.6220,-0.0152,0.2106,0.2061,0.295
12.6350,-0.0523,0.2014,0.3368,0.396
12.6440,-0.1275,0.2088,0.4112,0.478
12.6540,-0.1758,0.2017,0.4317,0.508
12.6680,-0.2302,0.1657,0.4264,0.512
12.6720,-0.2804,0.1046,0.4193,0.515
12.6800,-0.3136,0.1213,0.4047,0.526
12.6920,-0.3186,0.1368,0.3109,0.466
12.7000,-0.3625,0.1655,0.2081,0.450
12.7120,-0.4276,0.1871,0.1081,0.479
12.7230,-0.4834,0.1188,0.0569,0.501
12.7310,-0.5590,0.0193,0.0980,0.568
12.7420,-0.6195,-0.0444,0.1539,0.640
12.7510,-0.7267,-0.0662,0.2211,0.762
12.7630,-0.7366,-0.0401,0.2140,0.768
12.7740,-0.7350,0.0724,0.0984,0.745
12.7950,-0.7360,0.2339,-0.0862,0.777
12.7980,-0.8470,0.2494,-0.1910,0.903
12.8020,-0.8324,0.2121,-0.1610,0.874
12.8120,-0.9113,0.0216,-0.0162,0.912
12.8220,-0.9981,-0.1186,0.1758,1.020
12.8320,-1.0067,-0.1955,0.3524,1.084
12.8450,-1.0360,-0.2030,0.4488,1.147
12.8540,-1.0842,-0.0849,0.3791,1.152
12.8630,-1.0337,0.0379,0.1415,1.044
12.8790,-0.9309,0.1689,-0.3945,1.025
12.8820,-0.9659,0.1981,-1.0384,1.432
12.8920,-0.9509,0.2021,-1.5907,1.864
12.9010,-1.0661,0.0349,-1.9803,2.249
12.9130,-1.0972,-0.0716,-2.2213,2.479
12.9250,-1.1858,-0.3543,-2.3660,2.670
12.9330,-1.3422,-0.6838,-2.4428,2.870
12.9430,-1.6396,-0.9226,-2.6966,3.288
12.9540,-1.9368,-1.1394,-3.1464,3.866
12.9610,-2.0698,-1.3306,-3.8193,4.543
12.9810,-2.3239,-1.3068,-4.2882,5.049
12.9840,-2.5550,-1.1068,-4.5228,5.311
12.9940,-2.5540,-0.8648,-4.4458,5.200
13.0030,-2.5513,-0.6460,-4.0614,4.840
13.0130,-2.5514,-0.5885,-3.5260,4.392
13.0230,-2.1729,-0.7268,-3.2568,3.982
13.0330,-1.7742,-0.8664,-3.3913,3.924
13.0430,-1.1504,-1.2367,-3.7194,4.085
13.0520,-0.9610,-2.0864,-3.6529,4.315
13.0650,-1.4569,-3.5861,-4.2138,5.722
13.0740,-1.8778,-5.0231,-4.9453,7.295
13.0820,-2.1247,-6.1437,-3.4902,7.378
13.1070,-2.7062,-6.3968,-0.5071,6.964
13.1100,-3.1800,-5.9825,0.5726,6.799
13.1130,-2.7186,-5.4575,0.6166,6.128
13.1230,-1.6781,-4.5228,2.6888,5.523
13.1330,-1.2186,-3.6185,7.4838,8.402
13.1430,-0.3244,-1.7796,8.7404,8.926
13.1520,-0.1447,-0.0957,6.4772,6.479
13.1650,-1.4668,0.8111,4.0615,4.394
13.1750,-2.9394,1.3241,2.1196,3.858
13.1820,-3.1253,0.9491,1.1157,3.452
13.1930,-1.8450,0.2294,0.0629,1.860
13.2010,-0.5610,-0.3155,0.0808,0.649
13.2110,0.7659,-0.3185,1.0700,1.354
13.2350,1.4236,0.0065,1.1986,1.861
13.2360,1.3975,0.4515,1.1081,1.840
13.2420,1.6112,0.9199,1.1577,2.187
13.2540,1.8554,1.1770,0.8655,2.362
13.2650,2.5160,1.2484,0.6272,2.878
13.2720,2.1414,1.1598,0.4908,2.484
13.2840,2.6384,0.9823,-0.0549,2.816
13.2920,1.8581,0.6023,-0.2943,1.975
13.3070,1.6748,0.4141,-0.0422,1.726
13.3140,1.5128,0.4470,-0.0862,1.580
13.3200,0.9459,0.6134,0.4108,1.200
13.3330,0.5779,0.6414,0.6314,1.070
13.3420,0.3079,0.6487,0.2592,0.763
13.3510,0.4457,1.0927,-0.0812,1.183
13.3630,1.0554,1.6793,-0.3534,2.015
13.3740,1.4263,2.1253,-0.6016,2.629
13.3850,1.8534,2.8398,-0.2739,3.402
13.3930,1.7131,3.3658,0.2991,3.788
13.4010,0.6035,3.2609,0.3020,3.330
13.4120,0.5180,3.7146,0.4164,3.774
13.4200,0.3003,3.6026,0.3630,3.633
13.4320,0.4098,3.7000,0.7371,3.795
13.4420,0.1077,3.4069,1.0103,3.555
13.4510,-0.5804,2.8322,0.9588,3.046
13.4960,-1.2127,2.7254,0.8590,3.104
13.4980,-2.0770,2.3665,0.3315,3.166
13.4990,-1.6752,3.1414,0.2234,3.567
13.4990,-1.8715,3.6686,0.2355,4.125
13.5000,-2.8311,3.1534,0.0074,4.238
13.5140,-2.7445,2.7040,-0.3326,3.867
13.5210,-1.4891,3.0018,-0.2355,3.359
13.5320,-2.7524,1.6610,-1.0439,3.380
13.5460,-2.7512,1.6689,-1.0556,3.387
13.5540,-1.4181,1.8497,-2.0770,3.122
13.5630,-0.7429,2.0668,-2.7564,3.524
13.5710,-0.7293,2.0367,-2.8875,3.608
13.5810,-0.0474,2.5735,-2.1382,3.346
13.5920,-0.0019,2.8952,-1.8576,3.440
13.6000,-0.1064,3.3126,-2.9308,4.424
13.6130,-0.1988,2.6163,-6.4879,6.998
13.6200,-1.1739,-1.0618,-12.9775,13.074
13.6420,0.8345,-5.6681,-11.9887,13.287
13.6470,6.2590,-11.1609,-10.8079,16.750
13.6540,8.1666,-18.5822,-12.8091,24.001
13.6610,6.0002,-17.9531,-5.1475,19.617
13.6710,-0.0019,-4.1164,7.6578,8.694
13.6810,3.1101,12.1914,17.7857,21.786
13.6950,7.4072,17.8690,16.0937,25.163
13.7020,11.0908,15.9429,7.7979,20.928
13.7120,6.8528,7.2918,7.5488,12.535
13.7220,5.8660,1.4163,14.5126,15.717
13.7540,7.3956,-4.1419,11.7043,14.451
13.7550,8.1626,-9.6362,4.8291,13.521
13.7560,8.1001,-9.4070,4.4046,13.172
13.7650,0.3551,-15.1640,3.3385,15.531
13.7880,0.8801,-10.1779,5.1283,11.431
13.7910,2.5737,-5.3173,5.7820,8.266
13.7960,2.0852,-1.2606,4.8421,5.421
13.8010,1.6712,1.1425,3.1631,3.755
13.8140,1.8406,2.5133,1.9800,3.691
13.8260,1.6848,2.9677,1.9205,3.916
13.8530,1.0445,3.0696,2.3335,3.995
13.8540,0.9504,3.7680,2.6453,4.701
13.8550,0.5195,3.8822,2.5913,4.696
13.8610,-0.1060,3.3518,2.5702,4.225
13.8710,-1.1621,2.4378,1.7128,3.198
13.8800,-3.0916,0.3193,0.6009,3.166
13.9020,-5.7639,-2.2822,-0.9335,6.269
13.9030,-8.1338,-4.1183,-1.8912,9.311
13.9110,-9.9318,-5.4812,-2.6681,11.653
13.9200,-11.1008,-5.8601,-2.4225,12.784
13.9320,-10.6913,-4.4037,-1.6563,11.681
13.9510,-8.1793,-2.2288,-2.3071,8.786
13.9520,-4.9592,-0.4170,-2.5772,5.604
13.9650,-2.7044,1.1379,-3.1881,4.333
13.9710,-0.8666,2.5219,-3.8413,4.676
13.9890,-0.1037,2.2270,-3.6469,4.274
13.9930,0.2198,1.4765,-2.4039,2.830
14.0150,1.5565,2.9676,-1.1017,3.528
14.0170,1.8244,4.0733,-0.0370,4.463
14.0210,2.0801,4.5206,1.4870,5.194
14.0320,2.8201,3.8628,6.5150,8.082
14.0450,4.9177,1.9154,9.2905,10.685
14.0510,3.8568,-0.3026,4.6722,6.066
14.0620,-0.5483,-3.9037,-2.0109,4.425
14.0710,-4.6519,-6.0188,-11.2043,13.543
14.0800,-8.0853,-5.6693,-21.1238,23.318
14.0950,-8.3553,-4.7500,-18.2171,20.597
14.1010,-7.3190,-4.7745,-7.1685,11.303
14.1160,-6.1250,-5.1670,-0.9387,8.068
14.1290,-4.2035,-5.9461,0.8689,7.334
14.1340,-2.1507,-6.5630,-1.7568,7.126
14.1440,-2.7755,-8.0352,-7.4695,11.316
14.1520,-5.8545,-10.6144,-9.6621,15.502
14.1660,-9.6532,-12.3341,-6.6581,17.019
14.1710,-11.7769,-10.6645,-3.5092,16.271
14.2020,-10.0800,-6.9897,-6.1688,13.730
14.2030,-5.5052,-4.3303,-9.8378,12.076
14.2040,-1.2006,-5.3009,-10.7188,12.018
14.2120,2.5506,-6.4785,-10.5763,12.662
14.2340,4.5952,-7.1535,-6.0167,10.416
14.2370,6.4120,-7.6499,0.8926,10.022
14.2610,7.9117,-8.3950,6.2841,13.136
14.2850,7.4623,-8.6317,7.3994,13.599
14.2900,8.0068,-8.8634,5.0538,12.970
14.2970,8.8299,-8.3021,3.7441,12.685
14.2980,7.1999,-8.2125,2.5439,11.214
14.2980,3.2365,-8.6061,5.2827,10.604
14.3010,0.4283,-8.6267,3.7506,9.416
14.3110,0.6176,-7.3565,-7.9644,10.860
14.3200,4.3188,-3.8449,-15.3403,16.394
14.3330,4.3821,-0.7203,-2.5335,5.113
14.3730,6.0230,0.9264,9.1811,11.019
14.3730,5.7493,3.2947,19.3775,20.479
14.3740,6.2954,4.9453,17.4842,19.230
14.3750,1.5257,4.6665,9.1424,10.377
14.3800,-0.8740,5.3446,4.7252,7.187
14.4020,-1.8327,5.8919,4.3187,7.532
14.4040,-3.0571,5.6140,5.3985,8.367
14.4150,-4.3088,4.7004,5.4934,8.416
14.4220,-3.1995,3.5153,4.9851,6.888
14.4330,-0.0035,3.2931,6.6505,7.421
14.4420,3.9968,4.3809,7.7107,9.727
14.4510,7.2170,5.9173,8.0265,12.310
14.4610,8.4730,7.8034,8.5348,14.336
14.4710,6.6358,8.7172,10.1293,14.921
14.4990,5.4635,9.7425,11.0875,15.738
14.5000,3.9901,10.6290,10.0367,15.154
14.5010,1.5871,9.8500,7.5826,12.531
14.5130,-1.1866,8.0263,1.2472,8.209
14.5210,-3.5125,5.6444,-8.2427,10.590
14.5340,-5.9823,1.8173,-15.8360,17.026
14.5470,-7.3477,-0.7781,-12.4952,14.516
14.5530,-7.2030,-2.6843,-7.6261,10.828
14.5620,-4.1447,-4.4953,-4.9793,7.885
14.5710,-3.1003,-5.6332,-4.9857,8.137
14.5900,-2.0402,-4.4379,-5.5636,7.403
14.5920,-1.8510,-2.0247,-4.5491,5.312
14.6000,-0.5519,1.6624,2.6364,3.165
14.6140,5.5253,4.8343,6.4517,9.774
14.6210,19.8721,5.7960,-2.9075,20.903
14.6370,26.0078,-6.6351,-2.5787,26.964
14.6460,16.6454,-24.6294,-11.0740,31.722
14.6520,1.0124,-24.9722,-0.2328,24.994
14.6650,-1.7765,-9.5005,21.2387,23.335
14.6720,1.4612,1.3064,16.9763,17.089
14.6890,2.9741,6.2905,7.9880,10.594
14.7150,5.5217,6.8553,6.0025,10.654
14.7160,7.6085,4.9052,6.4085,11.091
14.7170,8.6784,3.8181,7.2164,11.915
14.7210,9.0101,3.1038,8.9864,13.099
14.7320,8.3209,2.1161,10.1066,13.261
14.7430,5.9925,0.7736,10.2214,11.874
14.7520,3.5265,-0.1467,9.5444,10.176
14.7630,3.2446,-0.0308,9.1895,9.746
14.7740,1.6159,-2.5186,8.8461,9.338
14.7820,1.4821,-4.4317,8.8799,10.034
14.7950,1.3027,-6.6423,9.4046,11.587
14.8010,-4.0740,-10.4705,-4.3541,12.049
14.8130,-12.1683,-11.3153,-14.3657,21.965
14.8200,-13.0012,-8.7516,-10.7738,19.018
14.8320,-13.2395,-5.3067,-5.9182,15.442
14.8400,-13.1201,-2.5200,-2.7493,13.640
14.8510,-11.0357,0.7709,-3.3841,11.569
14.8630,-7.4608,3.0244,-4.2272,9.093
14.8710,-3.7921,4.6737,-4.2375,7.361
14.8830,-1.6386,4.6995,-3.2667,5.953
14.9040,0.5537,4.2550,-2.2497,4.845
14.9050,1.8449,3.3658,-1.8326,4.253
14.9150,1.6120,2.4446,-0.3124,2.945
14.9210,0.8760,2.1803,1.5104,2.793
14.9320,0.8643,2.7685,3.2806,4.379
14.9410,1.5288,3.4484,5.3046,6.509
14.9510,1.5807,3.1230,5.8698,6.834
14.9640,2.1697,2.3787,5.2433,6.153
14.9710,1.0247,0.8720,1.7667,2.221
14.9820,-0.9247,-2.3766,-9.3187,9.661
14.9920,-3.1587,-6.0814,-24.8415,25.769
15.0000,-5.0932,-7.4907,-24.7686,26.373
15.0130,-5.3292,-7.9160,-12.0446,15.367
15.0200,-5.7834,-7.2082,0.2912,9.246
15.0310,-4.7380,-5.7073,4.5927,8.724
15.0400,-3.3075,-4.8944,-1.3379,6.057
15.0510,-1.3283,-6.0815,-7.8611,10.027
15.0620,-2.5494,-8.2975,-9.6254,12.961
15.0720,-5.7616,-9.1910,-9.4551,14.390
15.0820,-8.1787,-8.3437,-9.4222,15.010
15.0910,-10.1614,-9.3545,-8.4317,16.182
15.1010,-12.8215,-11.1521,-3.0979,17.273
15.1180,-15.1445,-10.2887,3.6525,18.670
15.1200,-13.9857,-6.8261,0.2538,15.565
15.1310,-8.9688,-3.3373,-6.8279,11.756
15.1410,-2.9606,-3.3787,-9.4589,10.471
15.1520,1.0619,-6.2317,-8.0869,10.264
15.2090,6.1669,-8.3248,0.8457,10.395
15.2130,10.0915,-8.3557,3.4017,13.536
15.2160,9.7579,-8.4668,3.8999,13.495
15.2180,6.8558,-8.2262,4.3277,11.550
15.2200,6.8037,-7.4362,2.1912,10.315
15.2220,8.3784,-6.4077,0.9256,10.588
15.2240,8.4269,-4.9333,-1.3216,9.854
15.2330,6.6012,-3.9526,-1.8489,7.913
15.2400,4.0979,-2.6486,1.3184,5.054
15.2530,1.6576,-2.0567,6.8183,7.312
15.2680,-0.0558,-1.7227,6.2797,6.512
15.2720,-1.6347,-1.4379,5.1706,5.610
15.2950,-2.9623,-0.5222,4.2171,5.180
15.2950,-1.9247,0.3770,2.6615,3.306
15.3000,0.9791,1.9114,3.3174,3.952
15.3180,1.1000,2.9470,6.0593,6.827
15.3250,0.4330,3.9098,6.9308,7.969
15.3440,0.1185,4.8103,6.5810,8.152
15.3490,0.5463,5.1405,7.6824,9.260
15.3560,1.2015,5.3944,6.4394,8.486
15.3640,1.9984,5.4485,5.2685,7.838
15.3780,2.6293,5.7820,5.0489,8.114
15.3810,4.1479,6.0237,5.7973,9.333
15.3920,5.6158,6.4703,6.4837,10.744
15.4040,5.8262,7.1880,7.2678,11.766
15.4490,4.6999,7.6370,7.9809,12.004
15.4530,3.1724,7.9135,8.7001,12.181
15.4550,0.8351,7.8418,8.1025,11.307
15.4570,-0.3182,8.1268,6.9071,10.670
15.4580,-1.1758,7.8401,4.3346,9.035
15.4640,-1.9428,7.1235,1.0418,7.457
15.4710,-2.9180,5.9718,-4.8711,8.240
15.4850,-3.6577,4.6121,-9.7082,11.353
15.5080,-5.5407,1.6200,-11.6551,13.006
15.5090,-8.0884,-2.2697,-11.2281,14.023
15.5120,-7.4632,-5.1838,-5.9610,10.868
15.5200,-6.0307,-5.7464,-2.1444,8.602
15.5370,-4.3102,-5.1101,-4.4045,8.006
15.5410,-4.7204,-5.3142,-9.6135,11.956
15.5570,-2.6735,-7.0564,-12.6822,14.757
15.5660,10.8415,-10.2517,-8.4565,17.151
15.5870,29.9054,-18.5326,-6.3594,35.752
15.5880,14.4472,-20.1195,-1.7986,24.834
15.6290,4.9438,-2.3633,15.0678,16.033
15.6300,5.9359,8.0770,15.3037,18.294
15.6320,6.1731,12.9035,7.5245,16.162
15.6330,6.0034,13.6419,2.2551,15.074
15.6330,7.0513,9.8825,2.4886,12.393
15.6410,8.2976,5.1701,5.0328,10.996
15.6520,10.7246,1.6223,10.2141,14.899
15.6920,10.5619,1.7089,10.0157,14.656
15.7000,9.2813,-2.8824,17.1835,19.741
15.7010,4.9197,-3.9255,15.7644,16.974
15.7020,1.8594,-4.1618,13.0314,13.806
15.7030,0.4935,-3.5366,10.4838,11.075
15.7140,0.0954,-2.8075,8.7769,9.215
15.7220,0.3887,-2.2329,6.5311,6.913
15.7350,0.5359,-2.7053,4.9979,5.708
15.7400,-0.2715,-4.8194,3.8602,6.181
15.7510,-2.4909,-6.4378,3.3661,7.680
15.7660,-7.1831,-7.5807,-15.8237,18.959
15.7710,-12.6218,-7.4642,-16.3275,21.946
15.7880,-15.3974,-5.8065,-8.8673,18.693
15.7930,-15.5393,-2.9772,-2.5312,16.023
15.8100,-12.8400,0.7163,-0.1691,12.861
15.8140,-9.0201,2.9870,-1.1970,9.577
15.8210,-5.0829,3.9699,-3.2320,7.214
15.8320,-3.2942,3.3497,-4.2164,6.313
15.8410,-0.6887,1.8416,-4.9420,5.319
15.8550,1.9839,0.6688,-5.0427,5.460
15.8620,2.8200,-2.0587,-3.0261,4.620
15.8750,1.6572,-2.9226,0.1176,3.362
15.8820,0.8221,-0.9955,4.3097,4.499
15.8960,-0.4828,0.7816,5.9935,6.064
15.9030,-1.6602,1.7008,5.7043,6.180
15.9240,-1.6080,2.9973,11.3489,11.848
15.9270,0.4828,2.1086,3.2407,3.896
15.9320,1.1144,-1.5060,-13.3420,13.473
15.9400,-1.9695,-5.3522,-29.3751,29.924
15.9520,-4.4979,-7.1411,-22.4027,23.940
15.9700,-4.6933,-7.2476,-5.6959,10.344
15.9710,-5.3136,-5.9776,1.4980,8.137
15.9810,-7.0194,-5.2345,-0.3978,8.765
15.9910,-5.4742,-5.0574,-6.9263,10.174
16.0000,-4.6196,-6.6142,-8.6153,11.803
16.0120,-6.1036,-8.2722,-6.1921,12.001
16.0200,-9.1707,-9.9221,-4.8218,14.346
16.0310,-11.3443,-10.6926,-6.1551,16.760
16.0400,-11.3978,-8.8978,-3.6618,14.916
16.0510,-10.8776,-6.9965,-2.2693,13.131
16.0610,-7.7155,-5.5391,-6.1512,11.316
16.0740,-3.2222,-4.8330,-10.7474,12.217
16.0960,-0.0242,-6.3865,-11.9669,13.564
16.0970,3.7521,-9.4006,-5.3511,11.449
16.1020,6.6637,-10.2300,1.4403,12.294
16.1160,8.8923,-9.4065,4.6994,13.771
16.1350,7.9612,-8.6756,6.3651,13.385
16.1380,7.0880,-8.9308,3.7448,12.001
16.1450,8.2590,-8.9080,1.8326,12.285
16.1530,9.5424,-8.0660,-0.6781,12.513
16.1660,8.7796,-6.3095,-1.4461,10.908
16.1720,6.5220,-4.6861,4.1370,9.034
16.1820,2.1449,-4.0370,-0.3168,4.582
16.1920,-2.1563,-4.6652,5.0965,7.238
16.2020,2.0760,-1.3167,-4.0949,4.776
16.2360,-0.6600,0.1680,-1.1737,1.357
16.2380,0.0089,0.9745,5.7505,5.832
16.2390,2.4292,2.9255,8.4133,9.233
16.2410,4.0337,4.5441,7.7846,9.875
16.2530,2.5589,4.9903,7.4013,9.286
16.2640,0.5880,5.6138,6.8724,8.893
16.2710,-0.0435,6.4948,6.0065,8.847
16.2830,-0.4637,7.1254,5.9444,9.291
16.2910,-0.0531,6.8397,6.1271,9.183
16.3190,0.6008,6.6945,6.1319,9.098
16.3240,2.8602,7.1168,6.2233,9.877
16.3270,3.9037,7.4409,7.1132,11.009
16.3330,4.5654,7.7091,8.0178,12.023
16.3410,5.3935,8.3641,8.6488,13.185
16.3520,5.2399,8.9648,9.3551,13.977
16.3630,4.1264,8.9469,10.1594,14.152
16.3720,3.2512,8.7519,9.8476,13.570
16.4020,1.8608,8.0367,7.8286,11.373
16.4030,0.5815,6.8191,4.5205,8.202
16.4040,-1.6059,4.4812,-2.6124,5.430
16.4150,-5.1178,2.4381,-10.0833,11.568
16.4210,-7.7251,0.7916,-15.6474,17.468
16.4430,-9.1708,-0.7168,-12.6801,15.665
16.4490,-8.0408,-3.7039,-11.0253,14.140
16.4530,-5.9950,-5.7896,-5.8886,10.205
16.4610,-4.1560,-6.2906,0.2589,7.544
16.4720,-1.9043,-4.7916,2.5855,5.768
16.4840,1.7062,-2.0071,2.3083,3.503
16.4920,6.5907,-0.4250,3.9340,7.687
16.5330,15.3855,-4.4802,-7.6878,17.773
16.5380,35.5680,-18.5599,-26.6038,48.138
16.5420,16.0366,-22.2624,-6.9096,28.294
16.5480,4.5918,-6.4136,16.4460,18.240
16.5530,5.2706,2.9700,14.9396,16.118
16.5560,3.4841,6.1505,7.7154,10.464
16.5610,2.2171,6.6436,3.6379,7.892
16.5720,2.5246,6.3621,1.8035,7.078
16.5830,3.9636,5.3405,2.7068,7.180
16.5920,4.8411,3.7144,5.9942,8.554
16.6220,4.8051,2.6309,10.2898,11.657
16.6230,4.5607,1.5304,14.6319,15.402
16.6240,4.3661,1.5716,14.4610,15.187
16.6360,1.7979,-1.5926,14.9357,15.128
16.6410,0.0467,-3.3227,15.2778,15.635
16.6510,-0.5197,-5.0079,11.9243,12.944
16.6600,-0.4892,-5.9113,7.1338,9.278
16.6750,-1.6965,-6.7470,3.5932,7.830
16.6880,-2.7586,-6.4094,3.8304,7.960
16.6910,-2.7817,-5.6082,2.5580,6.763
16.7020,-7.0336,-5.9551,-13.1527,16.060
16.7110,-11.9591,-4.9469,-19.1426,23.107
16.7230,-13.3505,-2.1631,-16.7831,21.554
16.7450,-12.1833,1.1792,-10.0174,15.817
16.7500,-9.7187,3.6241,-3.0785,10.820
16.7540,-6.5570,4.7054,0.3469,8.078
16.7600,-4.1984,4.0039,-0.3040,5.810
16.7750,-0.9044,2.5455,-2.4402,3.640
16.7930,2.1914,0.9340,-4.5961,5.177
16.7940,3.4699,-1.0020,-4.4727,5.749
16.8000,1.7450,-1.1313,-2.2088,3.034
16.8120,-0.8293,-0.3964,-0.9146,1.297
16.8200,-2.5669,0.2078,1.0251,2.772
16.8330,-3.2244,0.0371,1.1393,3.420
16.8420,-2.7096,-1.2372,4.4375,5.344
16.8580,-1.1337,-2.9461,2.2863,3.898
16.8660,-0.2284,-4.4438,-8.6474,9.725
16.8750,0.8061,-4.5988,-22.9274,23.398
16.8870,1.2493,-4.8802,-24.4276,24.942
16.8950,0.3701,-5.4519,-13.3196,14.397
16.9040,-1.8501,-5.7454,-0.6658,6.073
16.9200,-5.1279,-5.8512,5.0585,9.280
16.9270,-9.1178,-6.5877,3.9797,11.932
16.9350,-11.0737,-7.2865,-2.3166,13.457
16.9420,-12.1432,-7.7943,-10.2694,17.711
16.9530,-13.2105,-9.0666,-11.5224,19.735
16.9610,-14.2023,-10.1455,-6.9514,18.787
16.9890,-13.2945,-9.0557,-2.5204,16.282
16.9920,-13.2288,-8.9788,-2.3150,16.155
17.0320,-3.3293,-4.5097,-6.8035,8.815
17.0370,2.2494,-5.0301,-13.6380,14.709
17.0390,6.1797,-7.1756,-11.0710,14.569
17.0410,8.4491,-8.5000,-2.2636,12.197
17.0420,10.0795,-8.7568,1.9376,13.492
17.0450,7.1639,-8.8586,4.9922,12.439
17.0520,5.9354,-9.0868,4.1479,11.619
17.0630,6.5196,-8.8374,2.4547,11.253
17.0900,7.8897,-8.3312,3.1736,11.905
17.0920,8.1524,-7.4450,8.4227,13.886
17.0930,5.3139,-5.4909,4.7372,8.990
17.1010,3.3129,-3.8152,-4.7550,6.938
17.1110,0.3751,-4.2065,-3.6534,5.584
17.1280,-0.6731,-3.5972,0.0949,3.661
17.1340,0.6578,-0.4916,1.9772,2.141
17.1400,-0.0136,1.1027,4.3257,4.464
17.1550,2.4657,3.4927,3.7188,5.666
17.1630,4.0602,5.2181,4.0550,7.756
17.1730,5.0608,6.2809,5.5023,9.764
17.1820,4.1947,6.6242,5.8341,9.773
17.1940,2.1661,6.5769,6.1175,9.240
17.2010,-0.2260,6.3858,5.7126,8.571
17.2230,-1.6830,6.2486,4.8641,8.096
17.2240,-1.2599,6.0159,4.6416,7.702
17.2320,0.3432,5.8061,5.8052,8.218
17.2410,2.0808,6.1398,6.8193,9.409
17.2580,3.3320,6.7074,7.5706,10.649
17.2600,4.5179,7.5046,7.7683,11.708
17.2730,5.3191,8.4836,7.3578,12.426
17.2840,5.1571,8.7608,7.5249,12.648
17.2920,3.6572,8.7885,7.5489,12.149
17.3230,2.4213,8.6595,5.3008,10.438
17.3260,2.1654,8.2331,2.8879,8.990
17.3280,0.2205,6.1895,-3.0488,6.903
17.3340,-4.3676,1.8920,-12.1321,13.032
17.3410,-8.4650,-2.2324,-16.2618,18.469
17.3550,-9.7226,-4.3703,-11.7541,15.868
17.3600,-4.5181,-3.8880,-6.0773,8.513
17.3720,-1.0249,-3.3672,-6.5058,7.397
17.3850,-0.8001,-4.1886,-10.5066,11.339
17.3910,-1.6944,-4.9848,-8.7721,10.231
17.4180,0.5769,-2.8396,2.5828,3.882
17.4190,5.1175,-0.4162,7.2763,8.905
17.4200,13.6554,-1.3687,4.8345,14.550
17.4320,21.8936,-6.6277,9.3085,24.696
17.4410,13.5178,-15.8902,-9.6361,22.980
17.4570,3.5771,-13.2088,7.2377,15.481
17.4610,4.7644,-1.7086,13.6904,14.596
17.4880,4.1527,3.2970,9.4893,10.870
17.4890,3.5952,4.8471,4.3795,7.456
17.5110,3.4739,5.0083,1.7769,6.349
17.5120,4.3222,4.7904,0.9306,6.519
17.5130,5.0331,4.2773,1.3725,6.746
17.5200,5.2866,3.6116,2.0928,6.736
17.5310,5.0830,3.6576,1.8707,6.536
17.5410,4.7124,1.9623,4.1769,6.596
17.5520,3.8000,0.3230,5.6493,6.816
17.5610,1.2881,-2.9755,8.7984,9.377
17.5710,-2.9834,-6.4453,12.4358,14.321
17.5800,-2.4974,-6.6456,12.0092,13.951
17.5970,-3.1238,-6.1935,8.7277,11.149
17.6000,-2.6017,-4.7673,6.3421,8.350
17.6140,-2.6123,-3.0044,5.1624,6.519
17.6210,-4.4408,-1.6279,-15.4880,16.194
17.6340,-8.2126,-1.6650,-20.5186,22.164
17.6420,-10.1278,0.2473,-15.6395,18.634
17.6550,-10.8826,1.3343,-8.4248,13.827
17.6610,-8.5474,2.4908,-3.5726,9.593
17.6800,-5.5676,2.6650,-0.9134,6.240
17.7050,-3.2490,2.3844,-0.0712,4.031
17.7060,-0.4832,2.0954,0.4458,2.196
17.7060,1.5078,1.6456,1.0161,2.452
17.7110,3.1971,0.7169,2.3779,4.048
17.7260,3.3668,0.7844,3.4174,4.861
17.7400,3.3174,0.9537,3.6476,5.022
17.7410,3.4299,0.8463,3.7443,5.148
17.7550,4.3924,1.1110,2.1061,4.996
17.7610,4.8564,0.2702,-1.7880,5.182
17.7750,3.3891,-2.6588,-11.4030,12.189
17.7820,-0.9524,-5.6266,-21.4498,22.196
17.7950,-6.7205,-7.7380,-21.4564,23.779
17.8030,-9.5617,-8.2674,-11.3369,16.979
17.8160,-9.7705,-7.6287,-1.9146,12.543
17.8240,-10.0571,-6.0761,1.2319,11.815
17.8320,-10.1819,-6.0827,1.3486,11.937
17.8430,-6.8445,-5.3541,-6.1052,10.620
17.8540,-5.7445,-7.1459,-9.9048,13.497
17.8610,-6.5652,-8.8972,-8.5322,13.966
17.8720,-8.6105,-10.2502,-4.2262,14.038
17.8820,-10.8090,-10.0767,-2.3014,14.956
17.9140,-10.3664,-7.6156,-4.5819,13.655
17.9150,-7.5685,-4.7713,-8.2010,12.137
17.9160,-4.5193,-3.9066,-10.0022,11.650
17.9560,-1.4420,-4.8364,-9.8758,11.091
17.9590,1.1639,-6.9738,-9.5750,11.902
17.9610,3.6412,-8.8151,-4.7620,10.660
17.9630,5.9695,-8.6621,0.5215,10.533
17.9700,7.6673,-8.2634,4.0316,11.972
17.9740,4.9026,-7.7512,5.7624,10.831
17.9860,4.6085,-6.9810,3.7315,9.159
17.9940,6.8908,-5.9979,2.1029,9.374
18.0010,8.0969,-5.5305,-0.3379,9.811
18.0110,7.5563,-4.4733,-0.7203,8.811
18.0280,7.1798,-3.0521,-1.1992,7.893
18.0320,5.5995,-2.2576,-0.0039,6.037
18.0630,1.0755,-2.3123,1.9589,3.216
18.0640,0.2054,-1.2166,2.4984,2.786
18.0650,-2.5926,-0.4403,4.1710,4.931
18.0720,-1.5177,0.7642,3.7452,4.113
18.0810,0.5724,2.1763,5.5082,5.950
18.0990,-0.5372,3.0904,5.2987,6.158
18.1050,-1.1456,3.9767,4.3988,6.040
18.1120,-1.1581,4.4784,5.3470,7.070
18.1270,-0.9887,5.0246,5.6291,7.610
18.1310,-1.2826,5.4718,4.8101,7.397
18.1400,-0.8892,5.5081,4.4790,7.155
18.1540,0.1372,5.6662,4.3227,7.128
18.1600,2.4917,6.1532,4.6641,8.113
18.1720,4.4520,7.0347,5.5468,10.004
18.1800,6.0794,8.0235,6.0020,11.720
18.1930,5.0059,8.2695,6.4429,11.617
18.2360,4.2108,8.7172,7.3463,12.153
18.2370,2.3393,8.4350,8.2320,12.016
18.2380,1.7040,8.2790,7.9607,11.611
18.2390,1.1996,7.9461,6.1930,10.146
18.2430,1.7518,7.8807,3.0896,8.644
18.2570,0.1020,6.3300,-4.3242,7.667
18.2630,-3.8043,3.0177,-13.1385,14.007
18.2740,-8.5980,-1.2081,-17.3557,19.406
18.2820,-9.1836,-3.6067,-11.4468,15.112
18.2920,-6.1593,-5.0080,-7.0572,10.622
18.3040,-4.2092,-5.6657,-6.9139,9.880
18.3120,-2.8095,-5.4053,-7.4057,9.589
18.3390,-2.1308,-4.9896,-7.6357,9.367
18.3400,-1.5598,-5.7833,-6.1670,8.597
18.3410,3.2540,-7.3354,-1.5171,8.167
18.3550,16.9188,-10.9751,-0.8321,20.184
18.3620,16.2493,-11.8122,-2.9051,20.298
18.3810,7.4862,-3.7291,9.1874,12.424
18.3940,6.7869,4.1113,14.1896,16.258
18.3960,6.2586,8.3668,5.9255,12.012
18.4010,7.9177,9.9358,1.7546,12.825
18.4280,9.4882,7.7019,3.4290,12.693
18.4310,9.6028,4.3062,5.3078,11.787
18.4320,9.2387,1.5411,8.7702,12.831
18.4620,8.7008,-1.0131,11.6897,14.607
18.4630,7.2696,-2.1828,12.8757,14.946
18.4640,4.3706,-3.3678,13.3639,14.458
18.4730,1.7001,-3.6064,12.7212,13.331
18.4800,0.4222,-3.4559,11.2775,11.803
18.4920,-0.5020,-3.4303,9.4907,10.104
18.5160,-0.0714,-3.6353,7.6062,8.431
18.5170,0.4433,-4.8690,6.2782,7.957
18.5210,-1.2439,-6.3986,6.0008,8.860
18.5310,-2.0974,-7.3347,0.6493,7.656
18.5410,-7.0408,-7.7920,-19.1951,21.880
18.5520,-10.1122,-6.1148,-16.8544,20.584
18.5600,-12.0999,-3.5809,-9.8371,16.000
18.5760,-12.9439,-1.7246,-4.9528,13.966
18.5830,-10.9849,1.2730,-5.1590,12.203
18.6260,-8.8290,3.3628,-5.0941,10.734
18.6300,-6.6720,4.2614,-3.2103,8.543
18.6330,-3.9990,3.6920,-2.7352,6.091
18.6340,-1.2252,2.0394,-3.0293,3.852
18.6350,0.3627,0.4799,-2.6072,2.676
18.6420,0.5377,0.5317,-2.6742,2.779
18.6570,-0.5127,-1.8691,3.2014,3.742
18.6600,-1.0836,-0.8843,3.1278,3.426
18.6760,-0.6456,0.7690,2.6280,2.813
18.6800,0.8069,2.9128,3.8528,4.897
18.6930,4.3769,3.4339,1.2263,5.697
18.7050,4.5098,-0.1289,-9.8044,10.793
18.7210,0.7991,-4.1007,-19.6023,20.043
18.7220,-2.6321,-6.4341,-17.9897,19.286
18.7310,-4.8650,-6.4083,-7.2375,10.822
18.7400,-6.5770,-5.8607,0.8217,8.848
18.7520,-7.8518,-4.7275,0.8589,9.205
18.7600,-6.8468,-4.2919,-4.3790,9.191
18.7710,-5.4920,-5.5884,-7.0918,10.568
18.7800,-4.5323,-6.7722,-5.7090,9.950
18.7920,-5.1411,-7.4437,-4.6622,10.177
18.8110,-7.0506,-7.2116,-4.7303,11.140
18.8120,-9.8268,-7.5876,-5.1546,13.443
18.8210,-11.4883,-7.7596,-4.4175,14.550
18.8320,-13.5150,-7.4482,-2.1413,15.579
18.8740,-12.8003,-6.2125,-2.2834,14.410
18.8790,-12.7360,-6.1492,-2.1125,14.300
18.8840,-2.7633,-3.4345,-7.4556,8.661
18.8880,1.0189,-6.2912,-9.5385,11.472
18.8920,4.0287,-9.8925,-12.5692,16.495
18.8960,7.5106,-11.2465,-6.3121,14.924
18.9040,9.5774,-9.7361,0.3516,13.662
18.9270,8.6511,-7.8969,4.7892,12.655
18.9290,5.7866,-7.2765,4.3531,10.265
18.9650,6.2515,-6.4309,2.0954,9.210
18.9690,7.3565,-5.1466,2.0049,9.199
18.9710,7.7155,-3.3628,4.3532,9.476
18.9720,5.6857,-1.4734,5.2056,7.848
18.9730,4.5393,-0.3067,-1.6288,4.832
18.9800,3.9460,-0.1674,-4.3430,5.870
19.0070,1.4504,-1.2116,1.3063,2.297
19.0090,2.3592,-0.3407,1.9807,3.099
19.0120,0.0425,0.7761,5.8538,5.905
19.0420,-1.6890,1.5089,5.7176,6.150
19.0440,-0.5945,2.8569,3.9959,4.948
19.0490,0.0716,3.7013,3.8424,5.336
19.0610,-0.5885,4.1990,4.1423,5.928
19.0710,-1.1522,4.5377,3.7629,6.007
19.0750,-1.0943,4.9051,3.6334,6.202
19.0820,-0.5510,5.1533,3.5889,6.304
19.0910,0.1069,5.1180,4.0220,6.510
19.1370,1.9757,4.9265,4.4544,6.929
19.1390,4.1609,5.1298,5.4717,8.577
19.1390,5.1390,5.8229,6.1903,9.932
19.1410,4.9468,6.5891,7.2142,10.951
19.1420,3.5196,7.5368,8.2389,11.708
19.1520,1.9985,8.4906,7.5703,11.550
19.1610,0.9062,9.0590,5.8343,10.813
19.1730,1.4016,9.2285,3.1734,9.859
19.1820,0.7248,7.8096,-2.7738,8.319
19.1910,-4.9318,2.9374,-10.9358,12.351
19.2000,-10.6798,-3.0025,-15.2432,18.853
19.2110,-10.5300,-4.0995,-9.0391,14.470
19.2440,-8.6963,-2.3303,-4.0574,9.875
19.2450,-6.4312,-0.6498,-2.9349,7.099
19.2460,-4.7013,0.2200,-3.5954,5.923
19.2530,-2.9777,0.8832,-3.2624,4.504
19.2610,-0.8830,2.8103,1.8001,3.452
19.2870,0.6691,5.2970,10.5079,11.786
19.2910,5.6911,8.4385,12.3525,16.006
19.2920,5.6983,8.5022,12.2630,15.973
19.3010,28.3096,-6.0459,-10.4072,30.762
19.3110,19.1692,-29.0766,-18.0759,39.238
19.3230,2.1764,-27.3099,4.0645,27.696
19.3310,-0.4963,-8.3955,19.5632,21.294
19.3580,1.1235,1.7305,14.5373,14.683
19.3620,2.3682,6.0580,7.2117,9.712
19.3650,3.6697,6.7395,2.9356,8.216
19.3860,4.7250,6.0944,1.9888,7.964
19.3930,5.6206,5.3383,3.0531,8.331
19.3960,6.3013,4.4292,4.9244,9.142
19.4000,6.0970,3.2989,6.2592,9.340
19.4120,5.1964,1.5325,6.9985,8.850
19.4240,3.4532,0.1922,6.3634,7.243
19.4320,1.7197,-1.5194,5.7758,6.215
19.4640,0.4302,-3.9411,5.8852,7.096
19.4700,-1.1149,-7.8104,6.9239,10.497
19.4720,-4.2152,-9.5758,-1.1073,10.521
19.4740,-8.2868,-8.8955,-10.7972,16.260
19.4820,-9.2596,-6.5465,-7.0083,13.331
19.5000,-8.9367,-3.2008,-0.8061,9.527
19.5040,-8.6399,-1.1248,0.4352,8.724
19.5440,-8.0042,1.1292,-0.2145,8.086
19.5460,-7.6123,2.4481,-1.8237,8.202
19.5480,-7.2123,3.2927,-3.2926,8.585
19.5490,-7.1276,3.3127,-3.4981,8.603
19.5520,-6.1344,3.2780,-4.6433,8.363
19.5600,-1.7580,3.0528,-3.0775,4.678
19.5790,-0.0258,2.3266,-1.5084,2.773
19.5830,0.6519,1.3525,0.6381,1.631
19.6100,1.1276,0.7448,2.6748,2.997
19.6130,1.9738,0.9264,4.1356,4.675
19.6140,2.5736,1.0456,5.3681,6.044
19.6210,3.7729,1.6547,6.4240,7.632
19.6310,6.6740,2.2005,2.7140,7.533
19.6470,6.0990,0.8096,-5.5799,8.306
19.6610,3.6591,-1.5374,-14.0738,14.623
19.6630,1.0091,-3.9175,-20.9526,21.340
19.6750,-2.1440,-5.6667,-17.2016,18.237
19.6810,-4.7082,-7.0720,-6.9746,10.992
19.6910,-8.5612,-7.5092,-0.4032,11.395
19.7000,-11.4866,-6.8737,1.4390,13.463
19.7110,-12.0590,-6.3724,-0.4676,13.647
19.7410,-11.2121,-6.4824,-4.5062,13.713
19.7430,-9.0366,-7.0068,-7.1527,13.488
19.7440,-7.2961,-8.2549,-7.8486,13.527
19.7510,-6.7116,-9.2395,-8.2441,14.085
19.7610,-7.4030,-9.9917,-7.5278,14.536
19.7940,-9.0474,-9.7668,-5.1608,14.279
19.7960,-9.9262,-7.5975,-4.2231,13.194
19.7970,-8.2285,-4.5286,-6.8159,11.605
19.8100,-4.6578,-2.5787,-9.3758,10.782
19.8270,-2.5272,-3.6589,-8.2345,9.359
19.8320,-0.1279,-5.8127,-8.3568,10.180
19.8350,2.1491,-8.0438,-6.3488,10.470
19.8570,5.1707,-9.0032,0.1211,10.383
19.8620,7.0244,-9.0325,4.0177,12.127
19.8660,5.6582,-8.2149,5.8510,11.564
19.8730,5.5228,-7.2517,3.5084,9.767
19.9000,6.7907,-6.4058,1.7607,9.500
19.9030,7.1522,-5.2413,1.7208,9.032
19.9040,5.5197,-3.9993,2.0406,7.115
19.9120,2.0198,-2.7577,4.5035,5.654
19.9250,-0.0213,-2.0890,0.8763,2.265
19.9310,-2.7491,-2.4642,-1.3153,3.919
19.9690,-1.4638,-1.6405,-6.0147,6.404
19.9700,1.2908,0.4011,-4.1223,4.338
19.9710,2.4309,1.2631,0.9861,2.912
19.9720,2.2197,1.7616,7.6230,8.133
19.9820,1.5605,2.8337,8.8548,9.427
19.9930,1.5918,4.8689,5.7975,7.736
20.0040,1.6950,4.8171,6.0095,7.886
20.0190,0.3002,5.4447,4.9150,7.341
20.0700,-0.4469,5.6529,4.6915,7.360
20.0740,-0.3506,5.7058,4.2524,7.125
20.0760,0.1110,5.3348,4.1570,6.764
20.0770,1.0341,4.9732,4.5762,6.837
20.0780,2.7364,5.2416,5.4268,8.026
20.0800,3.7632,6.0604,5.9879,9.314
20.0820,4.4751,6.9501,6.8495,10.735
20.0920,4.5958,7.6090,7.9724,11.941
20.1040,4.2196,7.9019,8.4533,12.317
20.1150,4.5525,8.0204,8.4741,12.524
20.1540,4.5463,7.9478,8.6009,12.562
20.1550,2.7351,7.9492,5.8218,10.226
20.1560,2.4330,7.6800,2.7038,8.498
20.1560,-0.0296,6.2355,-3.5370,7.169
20.1610,-3.7779,3.8055,-9.1763,10.628
20.1720,-6.0805,2.2538,-11.9511,13.597
20.1810,-7.1790,0.9050,-7.6909,10.560
20.1920,-6.4013,-0.6492,-5.8966,8.727
20.2010,-5.7032,-2.7110,-5.1782,8.166
20.2170,-3.7734,-3.4737,-2.6670,5.781
20.2670,-1.8275,-3.0144,-1.4456,3.810
20.2690,-1.9159,-2.9965,-1.4807,3.853
20.2720,-0.5380,-1.9265,-1.4614,2.477
20.2930,6.8715,-5.5528,-2.9867,9.326
20.2950,21.5623,-17.0738,-13.6529,30.706
20.2970,14.3052,-30.0352,-18.4263,38.030
20.2980,0.7887,-16.4679,2.0773,16.617
20.2990,3.2326,-0.1231,16.8662,17.174
20.3000,3.6593,8.3841,11.2368,14.490
20.3110,3.5996,10.3892,6.5248,12.785
20.3260,3.4169,10.4745,2.6934,11.342
20.3310,3.4772,9.5329,1.0635,10.203
20.3700,4.5447,7.7470,1.2438,9.067
20.3710,5.9848,6.0851,2.1603,8.804
20.3720,7.9944,4.0968,3.6067,9.680
20.3750,9.2120,2.4990,5.6892,11.112
20.3800,7.4686,0.3550,7.7074,10.738
20.3920,4.7604,-2.4370,9.8586,11.216
20.4000,1.7767,-4.9249,12.2569,13.328
20.4160,0.9361,-5.7844,12.3004,13.625
20.4440,0.7408,-5.6388,9.0315,10.673
20.4460,0.5916,-5.3392,6.2869,8.269
20.4470,0.1849,-4.6224,4.4147,6.395
20.4520,-0.9859,-3.8494,3.0818,5.029
20.4600,-1.7607,-3.2169,3.8595,5.324
20.4730,-3.0587,-2.9382,-7.6295,8.729
20.4800,-9.9148,-4.4073,-20.2383,22.963
20.4910,-13.5621,-3.3415,-15.2443,20.676
20.5000,-13.2519,-0.7312,-8.0722,15.534
20.5130,-11.7043,1.6685,-3.0239,12.203
20.5440,-8.0178,3.8239,-2.3094,9.178
20.5460,-5.0907,3.8382,-2.7009,6.924
20.5470,-3.0599,2.5315,-2.9035,4.920
20.5510,-0.7755,1.3261,-2.7467,3.147
20.5620,-0.6201,1.3712,-2.8003,3.179
20.6100,0.9444,1.2618,0.6515,1.705
20.6120,0.8969,2.3852,3.8795,4.642
20.6120,0.5350,2.9171,5.8626,6.570
20.6130,-0.1000,2.6138,7.4277,7.875
20.6140,1.1253,1.7344,4.5776,5.023
20.6230,3.7120,-1.0876,-2.1957,4.448
20.6310,3.8305,-3.8768,-9.5039,10.956
20.6480,1.7291,-5.8518,-19.0375,19.992
20.6510,-2.0413,-6.3443,-21.4628,22.474
20.6790,-5.2958,-6.2578,-14.0285,16.248
20.6810,-6.8097,-6.1861,-3.6004,9.879
20.6820,-7.5583,-6.1240,-0.8693,9.767
20.6910,-8.8302,-6.2593,-2.6432,11.142
20.7000,-8.8067,-6.3927,-5.9226,12.390
20.7120,-8.7044,-7.0615,-8.6731,14.172
20.7440,-9.0915,-7.3788,-9.2728,14.936
20.7460,-10.0809,-7.3608,-8.7577,15.248
20.7470,-11.2123,-8.9670,-8.2203,16.544
20.7510,-12.7219,-10.2902,-4.2677,16.910
20.7610,-13.3417,-9.6920,1.2891,16.541
20.7930,-11.4150,-8.3565,1.9839,14.285
20.7940,-4.2933,-5.0317,-6.0284,8.949
20.7950,0.9133,-5.2981,-10.9196,12.171
20.8020,7.2194,-6.4438,-3.8281,10.407
20.8320,10.3990,-6.6051,1.3598,12.394
20.8400,10.6898,-6.5086,1.6594,12.625
20.8440,7.3209,-8.0697,2.7921,11.248
20.8520,8.7111,-9.6809,1.2958,13.087
20.8580,12.1134,-10.9635,0.3735,16.342
20.8630,10.7080,-9.9468,-0.7366,14.634
20.8810,7.6429,-6.6398,0.9641,10.170
20.8820,4.8331,-3.2341,1.4183,5.986
20.9170,0.4304,-2.1139,2.1923,3.076
20.9180,-1.3234,-2.0822,6.2150,6.687
20.9190,-3.6004,-2.1800,9.2334,10.147
20.9200,-6.3038,-2.1838,5.8601,8.880
20.9330,-4.5118,-0.5572,2.5286,5.202
20.9680,-0.9274,1.5953,3.4615,3.923
20.9790,1.5309,3.0315,5.6016,6.551
20.9820,2.8571,4.5013,7.1312,8.904
20.9840,2.4881,5.4603,7.6606,9.731
20.9860,1.6235,6.2567,7.1788,9.660
20.9970,1.9905,6.5566,7.1181,9.880
21.0010,2.4186,6.9890,6.3604,9.754
21.0120,3.1437,7.0739,7.0230,10.452
21.0200,4.1631,7.3014,7.6077,11.337
21.0320,5.7571,8.5259,7.7552,12.883
21.0820,6.3420,9.6502,8.0983,14.104
21.0870,5.6347,10.4458,8.5200,14.610
21.0900,3.7746,10.4647,8.6548,14.095
21.0920,1.5954,9.9866,7.8801,12.821
21.0940,1.5728,9.8043,5.5002,11.351
21.0950,1.7447,8.9068,0.4188,9.086
21.1010,0.1839,6.9368,-6.2411,9.333
21.1120,-5.1815,1.9488,-13.3047,14.410
21.1210,-7.8532,-2.7922,-18.1667,19.987
21.1530,-7.9952,-7.6765,-13.3318,17.338
21.1540,-0.3530,-9.0394,-6.1068,10.915
21.1550,3.3372,-9.8414,-7.4466,12.784
21.1610,1.5164,-10.9949,-12.8422,16.974
21.1760,-0.1380,-8.0949,-13.4912,15.734
21.1810,0.4716,-3.2717,-2.5333,4.165
21.2200,8.8218,-0.6356,8.4850,12.257
21.2320,15.5717,-2.7824,8.1835,17.810
21.2350,10.2895,-7.9483,11.2568,17.198
21.2400,1.3449,-9.5033,12.7109,15.928
21.2430,1.8897,-4.7150,14.6279,15.485
21.2460,3.2721,0.1770,8.4393,9.053
21.2560,3.6536,2.8463,4.6317,6.550
21.2600,4.3988,3.5883,2.6314,6.257
21.2760,5.7694,3.0271,2.4723,6.969
21.2810,7.1628,2.2488,3.1250,8.132
21.3120,7.4836,1.2499,4.0606,8.606
21.3140,5.1770,0.3357,4.4991,6.867
21.3140,3.3968,-0.5156,4.7387,5.853
21.3220,2.4941,-1.4688,5.6392,6.339
21.3320,2.6361,-1.5944,6.1929,6.917
21.3450,1.8981,-1.8691,6.5073,7.031
21.3510,0.9248,-1.8051,5.9129,6.251
21.3810,-0.3130,-1.6012,4.3043,4.603
21.3820,-1.0942,-1.4668,3.7832,4.203
21.3820,-2.1863,-1.8112,3.7368,4.693
21.3910,-3.5860,-1.5300,4.4534,5.919
21.4000,-6.0486,-1.2534,-6.0932,8.677
21.4130,-9.7205,-1.7838,-12.7654,16.144
21.4200,-11.2639,-0.6953,-11.3622,16.014
21.4490,-10.5833,0.8258,-7.4765,12.984
21.4560,-7.4884,2.0063,-2.3985,8.115
21.4570,-5.8020,1.8194,1.4641,6.254
21.4820,-3.7640,1.4676,3.5766,5.396
21.4830,-0.8748,1.2583,3.2602,3.602
21.4840,1.9780,0.6376,2.1242,2.972
21.5130,1.6389,-0.6059,1.4200,2.252
21.5130,0.6009,-1.2035,-0.5537,1.455
21.5140,0.8147,-0.6900,-2.6527,2.859
21.5210,2.7870,0.5759,-5.0836,5.826
21.5370,3.4316,-0.3850,-10.2575,10.823
21.5450,1.8002,-2.2941,-16.4861,16.742
21.5690,-0.5760,-3.8661,-17.7020,18.128
21.5800,-2.9083,-5.5996,-10.7575,12.471
21.5870,-5.0498,-6.6615,-1.5205,8.496
21.5920,-5.1659,-6.6731,-1.4340,8.560
21.5960,-9.2330,-6.6843,-3.0004,11.787
21.6170,-8.1699,-6.4342,-6.7237,12.384
21.6210,-7.4276,-6.7483,-8.2316,12.980
21.6270,-7.2551,-6.4710,-8.3988,12.847
21.6350,-7.5195,-5.8391,-8.4838,12.752
21.6510,-8.9827,-6.3204,-7.8153,13.480
21.6520,-10.2641,-6.9865,-5.2121,13.466
21.7060,-11.5421,-7.1405,-1.5419,13.660
21.7120,-10.5256,-5.9126,-1.0711,12.120
21.7140,-4.7384,-3.1088,-5.7319,8.061
21.7150,0.0742,-3.7369,-8.2153,9.026
21.7170,3.8469,-6.0107,-5.9379,9.284
21.7180,6.8339,-7.6624,0.8442,10.302
21.7460,8.7975,-8.1704,2.9127,12.355
21.7480,7.3293,-8.6971,4.9773,12.415
21.7500,6.7076,-9.8467,3.7192,12.481
21.7530,8.4066,-10.7465,0.9841,13.679
21.7800,10.4870,-9.9825,-1.2667,14.534
21.7810,10.3168,-6.7188,-4.3043,13.042
21.7820,8.6512,-3.3190,-2.4937,9.596
21.8170,4.4104,-1.1768,3.8805,5.991
21.8210,-0.8905,-1.4590,7.2849,7.483
21.8220,-0.0857,-0.2429,2.9502,2.961
21.8220,-1.5554,-0.3166,2.6384,3.079
21.8530,-1.6697,-0.2582,3.2528,3.665
21.8540,-0.9802,0.3074,3.7057,3.845
21.8550,1.9473,1.7948,5.0420,5.695
21.8640,2.7966,2.8766,6.2116,7.395
21.8730,1.9336,3.1797,6.7409,7.700
21.9000,0.9252,3.7668,6.5313,7.596
21.9040,0.2122,4.2601,5.5101,6.968
21.9080,0.3629,4.8296,4.4465,6.575
21.9140,0.9323,5.4558,4.6600,7.235
21.9240,2.6042,6.0994,5.2062,8.431
21.9340,4.0278,6.8086,6.2879,10.105
21.9470,4.9128,7.3712,7.2048,11.418
21.9530,5.5622,8.0941,7.9648,12.645
21.9860,5.4279,8.8175,8.5677,13.439
21.9870,4.5612,8.7278,8.9962,13.338
21.9870,3.4384,8.3797,8.6414,12.519
21.9930,2.7732,8.0669,7.0125,11.043
22.0000,2.5098,8.0582,3.7443,9.233
22.0120,2.4279,8.0433,3.7841,9.215
22.0230,-2.5076,4.0127,-11.0586,12.028
22.0560,-6.9261,0.5960,-14.7720,16.326
22.0670,-9.1098,-2.1598,-12.9171,15.953
22.0700,-6.5302,-4.1298,-6.7139,10.236
22.0740,-0.8810,-4.7817,-5.1957,7.116
22.0780,1.1548,-5.3104,-9.1108,10.608
22.0810,0.1261,-7.4098,-15.3342,17.031
22.0990,0.4367,-9.8350,-12.5724,15.968
22.1020,8.0335,-11.3290,3.5443,14.333
22.1560,18.9576,-11.7467,7.8681,23.649
22.1660,10.1744,-7.6652,9.9721,16.178
22.1680,3.3682,0.4097,10.0886,10.644
22.1700,6.1386,6.0057,12.0175,14.771
22.1740,7.7914,8.7336,5.6743,13.007
22.1770,8.6114,8.5422,3.2334,12.553
22.1800,9.7060,5.1915,3.9975,11.711
22.1820,9.6019,2.5573,6.1487,11.685
22.1940,9.0473,0.1152,8.9836,12.750
22.2300,8.5472,-2.0558,10.6882,13.839
22.2310,6.4956,-3.6646,10.8457,13.163
22.2320,3.9053,-4.1239,9.5358,11.099
22.2320,1.7213,-3.5136,8.1024,8.998
22.2450,1.1343,-3.1354,7.3825,8.100
22.2650,0.1615,-3.9620,6.9752,8.023
22.2700,-1.4554,-5.3868,6.6623,8.690
22.2720,-2.6155,-5.4436,6.9323,9.194
22.2840,-3.2002,-5.0230,10.2419,11.848
22.2920,-6.5760,-5.2408,-4.6222,9.596
22.3000,-11.7837,-5.6555,-12.3415,17.976
22.3160,-13.2410,-3.6782,-12.1220,18.325
22.3200,-12.5320,-1.8618,-8.4286,15.217
22.3780,-11.7431,-0.0186,-3.0860,12.142
22.3840,-10.8534,1.6023,-2.3544,11.221
22.3870,-10.8627,1.5933,-2.4927,11.258
22.3940,-4.8554,2.5960,-5.7621,7.970
22.3970,-1.4867,2.0460,-5.1717,5.757
22.4010,1.5384,0.9299,-4.0884,4.466
22.4030,3.2413,-1.0312,-1.6549,3.783
22.4060,3.1205,-1.9619,0.4562,3.714
22.4210,2.3149,-0.8543,2.5844,3.573
22.4220,1.9004,0.7631,3.6747,4.207
22.4630,1.5885,2.1679,3.5629,4.463
22.4640,1.4100,3.7408,5.3619,6.688
22.4650,3.3397,4.4983,3.8751,6.812
22.4660,5.2679,2.9711,-1.8064,6.312
22.4710,3.8908,-0.0051,-7.3553,8.321
22.4900,0.5725,-3.7214,-14.4864,14.968
22.4940,-3.4591,-6.2576,-16.0504,17.571
22.5000,-6.6877,-7.2886,-10.5270,14.445
22.5160,-6.7914,-7.3288,-10.5617,14.539
22.5200,-9.1523,-6.8950,-1.3959,11.544
22.5310,-8.9168,-6.6471,-2.1671,11.331
22.5600,-6.4608,-6.3488,-4.8570,10.278
22.5610,-5.1749,-6.6779,-6.4344,10.620
22.5620,-4.4203,-6.9956,-6.8853,10.765
22.5710,-5.4536,-7.7183,-6.7651,11.622
22.5800,-7.3971,-8.1048,-6.4331,12.720
22.5920,-9.5974,-7.3337,-3.3955,12.547
22.6000,-12.1144,-5.8926,1.0449,13.512
22.6140,-11.6658,-3.7585,-0.3033,12.260
22.6210,-8.2037,-2.3649,-5.2287,10.012
22.6680,-4.7003,-3.3772,-8.4283,10.224
22.6690,-0.9389,-5.7916,-10.2820,11.838
22.6700,3.3736,-7.4808,-5.1322,9.679
22.6710,7.3325,-8.1663,0.1490,10.976
22.6720,8.5472,-7.7706,3.0632,11.951
22.7150,7.1653,-7.1014,3.5372,10.690
22.7320,6.5133,-6.8455,3.2064,9.978
22.7370,7.6316,-6.0518,2.6183,10.086
22.7410,8.9327,-4.4879,2.8693,10.400
22.7470,7.9610,-2.6966,5.1257,9.845
22.7500,4.3361,-0.5810,5.6848,7.173
22.7540,2.5419,0.0674,1.3575,2.882
22.7580,-0.2008,-0.5065,-1.4595,1.558
22.7620,0.3739,-0.5116,-0.3754,0.737
22.7750,-1.4729,-0.5433,3.8917,4.196
22.7820,-3.3906,-0.0412,4.7290,5.819
22.7920,-1.5557,0.7881,4.4970,4.823
22.8010,-0.3422,1.3850,6.2007,6.363
22.8510,-0.0871,2.0299,6.2789,6.599
22.8570,0.2159,2.5282,5.9663,6.483
22.8590,0.2908,3.0980,5.1042,5.978
22.8610,0.4441,3.4160,3.7107,5.063
22.8620,0.6632,3.7702,2.4541,4.547
22.8640,1.3428,3.9126,2.8974,5.050
22.8960,3.2050,4.5380,3.9724,6.830
22.9000,4.7481,5.2758,5.2483,8.827
22.9040,5.2175,6.2519,6.0209,10.127
22.9070,4.9323,7.2343,6.5624,10.942
22.9140,4.0639,7.4028,7.2953,11.160
22.9210,2.9311,7.5100,8.1436,11.459
22.9370,1.9929,7.1636,8.2292,11.091
22.9400,1.4435,7.2326,6.9863,10.159
22.9680,2.1845,7.8483,3.6691,8.935
22.9730,2.1009,7.8923,-1.2696,8.265
22.9740,-0.8864,5.7755,-7.9150,9.838
22.9820,-5.7827,1.9899,-13.5673,14.882
23.0010,-8.1692,-1.4815,-12.7860,15.245
23.0060,-6.2883,-3.7087,-8.2885,11.045
23.0170,-3.9580,-4.8709,-7.4817,9.766
23.0210,-2.6000,-5.5218,-5.8683,8.467
23.0350,-1.1394,-4.6122,-2.5239,5.380
23.0410,0.2337,-2.8418,4.5066,5.333
23.0920,2.9280,-1.5434,7.6608,8.345
23.0990,11.0829,-4.3619,2.1990,12.112
23.1020,20.6585,-11.3584,-2.5347,23.711
23.1050,11.2732,-17.2068,-10.5821,23.133
23.1090,3.8316,-9.9282,9.1934,14.063
23.1120,4.4844,1.8076,14.4963,15.281
23.1150,4.5553,1.8638,14.3850,15.204
23.1230,4.7425,7.7406,4.5714,10.164
23.1320,6.1835,7.1931,2.9751,9.941
23.1410,7.5063,5.4718,2.7903,9.699
23.1840,9.0466,3.8918,3.7788,10.548
23.1850,9.1586,1.8741,5.2034,10.699
23.1860,7.4236,-0.6126,6.0347,9.587
23.1870,4.3002,-2.8795,6.4463,8.267
23.1940,2.2047,-3.8976,6.6067,7.981
23.2000,1.7977,-3.9922,6.7729,8.065
23.2150,1.8412,-3.5799,6.8359,7.933
23.2200,1.0846,-4.1627,7.2063,8.393
23.2550,-1.5373,-4.8541,8.2447,9.690
23.2560,-3.9689,-4.7434,9.1917,11.079
23.2680,-4.2317,-4.7805,8.9489,10.993
23.2690,-5.9081,-4.6080,-5.8426,9.501
23.2730,-11.2187,-5.2504,-16.8252,20.893
23.2860,-12.7694,-3.9093,-14.2729,19.546
23.3480,-11.6925,-0.6666,-7.7189,14.026
23.3550,-10.5046,1.4196,-3.2136,11.077
23.3590,-8.0404,3.0869,-2.2191,8.894
23.3630,-5.1056,3.5863,-2.9935,6.920
23.3640,-2.2172,3.4207,-3.8890,5.634
23.3650,-0.1533,2.9127,-4.2576,5.161
23.3660,0.8075,1.7751,-3.4762,3.986
23.3670,0.7089,1.0599,-1.4690,1.945
23.3740,0.3848,1.1221,1.6875,2.063
23.4140,0.5727,1.5502,5.8559,6.085
23.4150,1.0700,1.3370,9.1335,9.293
23.4160,1.7638,0.7087,8.9619,9.161
23.4180,2.3588,-0.2199,4.2869,4.898
23.4220,1.3571,-2.1121,0.1369,2.514
23.4540,-0.5334,-4.3364,-7.5693,8.740
23.4560,-2.0805,-4.2790,-20.9911,21.524
23.4560,-3.7388,-3.8807,-26.5384,27.080
23.4640,-4.8023,-5.0606,-15.6828,17.165
23.4710,-4.6888,-5.8407,-0.1295,7.491
23.4950,-5.2722,-5.7971,7.6006,10.917
23.4960,-7.9423,-5.7507,6.5678,11.802
23.5000,-7.7602,-5.2467,1.4065,9.472
23.5110,-5.9890,-5.5690,-7.0207,10.778
23.5200,-5.8667,-6.9193,-10.3526,13.765
23.5330,-7.0894,-8.1655,-9.4361,14.352
23.5400,-8.9779,-9.9859,-5.4588,14.496
23.5790,-9.9802,-9.6916,-3.1891,14.272
23.5880,-9.2856,-6.8897,-3.8314,12.181
23.5920,-8.1596,-5.2915,-6.3700,11.626
23.5960,-5.0121,-4.7064,-11.1840,13.128
23.6000,-1.9332,-5.2264,-14.3292,15.375
23.6050,-0.1042,-6.8940,-10.3200,12.411
23.6160,2.2743,-7.7199,-1.3376,8.158
23.6230,4.8425,-7.8745,3.5585,9.906
23.6400,4.9444,-8.0903,6.0275,11.235
23.6520,2.2279,-8.1350,6.0954,10.406
23.6570,3.2777,-7.7128,3.9812,9.278
23.6690,5.2969,-6.2117,2.9312,8.674
23.6710,6.2149,-4.6472,3.0050,8.322
23.7290,5.8291,-2.9819,2.3767,6.966
23.7390,5.0702,-1.5026,3.7748,6.497
23.7420,3.2739,-0.0765,1.7563,3.716
23.7460,1.8218,0.3358,-1.1428,2.177
23.7490,1.3052,0.6683,1.9751,2.460
23.7520,0.8524,1.4403,3.4245,3.812
23.7550,-1.2638,1.4508,6.3863,6.670
23.7570,-2.1597,1.5332,5.2777,5.905
23.7620,-0.8866,1.8211,5.7380,6.085
23.7720,-1.7801,1.4647,6.0743,6.497
23.7820,-1.8785,1.5642,5.6741,6.178
23.7910,-1.4195,1.8074,6.5155,6.909
23.8320,-0.9913,2.2204,5.3640,5.889
23.8400,-0.3465,2.8898,4.3604,5.243
23.8430,0.3605,3.4142,4.3383,5.532
23.8460,1.9376,4.1770,4.9939,6.793
23.8470,3.4452,4.7942,5.8432,8.306
23.8530,4.6267,5.6478,6.6443,9.872
23.8690,5.3056,6.3307,7.1078,10.897
23.8720,4.6455,6.4832,7.6568,11.056
23.9240,4.0147,6.9334,7.7165,11.124
23.9250,3.1838,7.4436,7.4677,11.014
23.9260,1.9468,7.5550,6.7673,10.328
23.9270,1.2286,7.4970,4.0089,8.590
23.9280,0.7785,7.0150,0.0396,7.058
23.9330,-1.5783,5.1039,-6.6710,8.547
23.9420,-5.7666,1.5236,-11.4285,12.891
23.9520,-7.7820,-1.0430,-13.1624,15.326
23.9620,-7.0858,-2.0629,-7.6792,10.651
23.9730,-3.1941,-2.3470,-4.1714,5.754
23.9830,-1.4178,-3.0308,-3.9497,5.177
23.9910,-0.3309,-3.8126,-6.9733,7.954
24.0320,-0.4556,-4.1919,-8.9498,9.893
24.0330,-0.6319,-3.3678,-5.3231,6.331
24.0370,2.0839,-2.3718,1.7288,3.600
24.0470,14.3311,-2.7127,5.2195,15.491
24.0510,21.8532,-6.8144,0.7847,22.904
24.0540,12.1672,-10.9130,-6.6208,17.634
24.0750,12.1825,-10.8382,-6.7509,17.648
24.0760,1.0677,-1.8933,13.6024,13.775
24.0800,2.4885,3.8360,10.6271,11.569
24.1220,2.9895,6.0915,6.0668,9.102
24.1230,2.8378,6.3495,4.0721,8.059
24.1240,3.7315,5.4552,3.9545,7.702
24.1240,4.0582,4.3098,4.9532,7.719
24.1320,5.2856,3.1147,6.4247,8.883
24.1630,6.0423,1.3479,7.9476,10.074
24.1690,5.0141,-0.2342,8.2506,9.658
24.1700,2.0928,-1.8963,8.5758,9.029
24.1720,-0.0234,-3.6427,9.3303,10.016
24.1820,-1.4580,-5.8754,10.4547,12.081
24.1910,-1.3437,-7.3240,9.4601,12.039
24.2010,-1.1499,-7.3857,7.4075,10.523
24.2390,-1.6773,-6.3526,7.3965,9.893
24.2410,-2.2649,-4.4119,7.9276,9.351
24.2420,-4.0633,-3.1694,-18.2682,18.981
24.2430,-6.6262,-1.9225,-22.0265,23.082
24.2550,-8.0243,-0.5232,-14.1059,16.237
24.2670,-10.1312,-0.0326,-4.1678,10.955
24.2720,-9.8319,1.0726,-2.7431,10.264
24.2810,-6.8979,2.4942,-4.6869,8.705
24.2910,-3.9030,2.2898,-4.4310,6.333
24.3000,-1.8684,0.9789,-2.9170,3.600
24.3180,-1.0905,0.3570,-2.3538,2.619
24.3210,-0.9517,0.3997,-2.4173,2.628
24.3740,-0.7653,0.2719,1.3454,1.572
24.3780,-0.1769,1.2253,3.9016,4.093
24.3790,-0.1233,1.7759,5.1650,5.463
24.3800,0.7314,2.7476,6.2275,6.846
24.3810,3.6215,3.2604,2.3136,5.394
24.3820,5.8143,2.2338,-4.3673,7.607
24.3910,5.3210,-0.9818,-12.9857,14.068
24.4040,2.0547,-4.3020,-17.1334,17.784
24.4450,-2.4477,-6.4649,-12.6192,14.389
24.4470,-5.4476,-6.9248,-4.9172,10.090
24.4480,-8.6830,-6.6867,-0.4061,10.967
24.4480,-10.7035,-6.1173,-1.6213,12.434
24.4510,-10.0490,-5.6984,-6.2430,13.131
24.4670,-8.6570,-6.3538,-8.3176,13.583
24.4710,-7.5301,-7.0320,-6.9330,12.418
24.5130,-7.4001,-6.8582,-5.3981,11.443
24.5160,-6.9846,-6.4662,-6.0276,11.266
24.5170,-6.7822,-6.8918,-6.5929,11.703
24.5180,-9.0997,-9.1047,-2.2301,13.064
24.5540,-11.2964,-10.3633,1.9718,15.456
24.5550,-8.1313,-6.6904,-3.3442,11.048
24.5560,-3.8144,-3.3518,-8.8533,10.206
24.5570,-0.7561,-3.5304,-12.2430,12.764
24.5690,2.1678,-5.4656,-13.3437,14.582
24.5750,6.5459,-6.6446,-6.5140,11.377
24.6050,6.7791,-6.5533,-6.1973,11.283
24.6100,8.5886,-7.1783,3.0291,11.596
24.6180,5.6784,-6.5265,4.3676,9.691
24.6300,5.4995,-6.3022,3.6373,9.121
24.6340,6.1749,-5.5098,3.3677,8.935
24.6370,5.8972,-4.0643,5.5818,9.080
24.6780,3.6099,-1.2802,7.9082,8.787
24.6820,1.8202,0.3514,1.2172,2.218
24.6840,0.2510,0.4169,-4.6412,4.667
24.6860,-0.6914,-0.1847,-3.1803,3.260
24.6880,-0.1475,-0.4417,3.0603,3.096
24.6920,-0.6734,-0.6984,8.2639,8.321
24.7020,-2.0063,0.1191,9.3576,9.571
24.7520,-1.8083,1.9656,6.1197,6.677
24.7590,-2.0077,3.8669,3.7703,5.762
24.7620,-1.6233,5.0027,2.9966,6.053
24.7650,-1.1826,5.4060,3.2437,6.414
24.7680,-0.5593,5.1945,3.2041,6.129
24.7710,-0.1009,4.2180,3.9377,5.771
24.7740,0.0813,3.0534,4.5694,5.496
24.7850,1.5106,2.4820,5.0477,5.824
24.7920,3.1914,2.3347,5.8862,7.091
24.8380,4.4717,2.9426,7.0854,8.880
24.8390,4.8559,3.7883,7.5517,9.745
24.8390,4.3894,4.8264,7.4300,9.888
24.8400,3.1429,5.6704,6.7003,9.323
24.8400,1.0516,6.0905,6.2516,8.791
24.8550,-0.5135,6.1457,5.1387,8.027
24.8660,-0.2524,7.2823,2.1953,7.610
24.8870,0.8684,8.3380,-1.6062,8.536
24.8890,1.3213,7.8560,-7.7464,11.112
24.8930,-1.3145,4.6617,-12.4860,13.393
24.9440,-5.0159,0.4556,-14.6705,15.511
24.9450,-5.1857,-1.9997,-9.9730,11.417
24.9470,-3.6054,-2.9173,-5.1699,6.945
24.9470,0.2006,-2.6663,-3.2991,4.247
24.9480,2.2941,-3.1036,-5.2737,6.535
24.9520,3.4931,-3.9261,-11.0328,12.220
24.9620,3.4053,-4.6965,-14.3639,15.491
24.9740,4.5164,-6.3542,-3.2106,8.431
24.9920,11.1266,-6.5689,6.0485,14.267
24.9930,10.6974,-6.1255,9.2868,15.434
25.0490,5.1203,-3.5746,5.4593,8.294
25.0500,3.8148,0.7737,13.2054,13.767
25.0510,4.5669,3.8982,13.8600,15.105
25.0520,4.5346,4.8865,9.0891,11.272
25.0530,4.8758,4.7192,5.4182,8.683
25.0540,5.4617,3.9542,3.7462,7.714
25.0620,5.7221,2.7494,3.7808,7.389
25.0730,6.5239,0.7699,4.4532,7.936
25.1200,6.3139,-1.1229,5.5839,8.503
25.1210,5.1639,-3.1727,6.5723,8.940
25.1220,4.1548,-4.0715,6.7995,8.948
25.1230,3.6012,-4.1273,5.7572,7.947
25.1230,2.9396,-4.1069,4.2885,6.626
25.1320,1.3564,-4.7374,2.9447,5.741
25.1400,0.1846,-4.7788,2.4076,5.354
25.1520,-0.1318,-3.4786,3.5576,4.977
25.1630,-4.6492,-1.7770,-14.7563,15.573
25.1910,-8.7648,-1.9605,-11.0683,14.254
25.1940,-9.3672,-1.8397,-5.5904,11.063
25.1950,-9.5234,-1.9002,-5.8263,11.325
25.2010,-9.3527,-0.2315,-2.8414,9.778
25.2110,-9.5298,-0.1465,-2.3817,9.824
25.2270,-7.2818,1.1731,-1.4482,7.517
25.2680,-4.8913,1.9067,-1.0451,5.353
25.2700,-3.5330,1.8614,-0.7458,4.062
25.2820,-2.6148,1.7412,-0.7610,3.232
25.2840,-1.4262,1.5409,0.1095,2.102
25.2850,-0.5936,1.2187,0.9237,1.640
25.2860,0.2881,1.4236,1.8511,2.353
25.2920,0.8857,1.9508,2.0742,2.982
25.3030,1.2751,2.1155,2.7097,3.667
25.3110,2.1484,1.9581,3.3716,4.452
25.3460,4.5991,1.5381,0.1956,4.853
25.3470,5.3690,-0.1583,-3.9439,6.664
25.3480,3.6084,-3.4474,-12.9756,13.902
25.3520,-0.2529,-5.6505,-20.3104,21.083
25.3610,-4.6390,-5.9325,-16.9827,18.578
25.3720,-7.3235,-5.7650,-8.9992,12.956
25.3810,-9.0773,-5.7061,-1.0971,10.778
25.3920,-10.5402,-5.6716,0.3501,11.974
25.4020,-10.6637,-5.6852,0.4430,12.093
25.4110,-7.7956,-6.8428,-7.4130,12.749
25.4440,-5.6164,-8.0534,-9.7229,13.818
25.4450,-5.5572,-9.5180,-7.3892,13.269
25.4460,-7.5592,-11.1856,-3.5451,13.958
25.4960,-9.7359,-11.1687,-2.6900,15.059
25.5040,-9.3423,-8.4547,-7.7813,14.809
25.5070,-6.1683,-5.2398,-10.6266,13.358
25.5110,-3.7286,-5.1031,-9.8298,11.686
25.5150,-1.7139,-5.8613,-8.8442,10.748
25.5190,0.0332,-6.8956,-9.3473,11.616
25.5220,2.6357,-8.0605,-5.9119,10.338
25.5250,5.5141,-7.9355,0.4057,9.672
25.5490,7.1054,-7.5114,4.6351,11.331
25.5520,4.1413,-6.8101,5.4063,9.631
25.5550,4.1684,-6.1163,3.1005,8.025
25.5960,5.3191,-5.0631,1.2592,7.451
25.5990,6.8703,-3.9367,-0.8028,7.959
25.6040,6.7444,-3.0532,-0.9345,7.462
25.6050,5.7966,-1.3050,-0.6145,5.973
25.6050,3.8210,-0.9759,-1.2576,4.139
25.6130,1.8719,-0.6574,-2.6052,3.275
25.6210,2.8216,0.0837,1.8871,3.396
25.6650,1.6020,0.6042,3.4002,3.807
25.6650,0.2205,0.8389,4.2024,4.291
25.6660,1.0410,1.6591,5.5218,5.859
25.6670,0.8459,2.2370,8.1095,8.455
25.6710,-0.6084,2.9292,6.3445,7.015
25.7100,-1.2074,3.9998,4.2972,5.994
25.7200,-2.2336,4.7331,3.2050,6.137
25.7230,-2.9943,4.8472,3.4030,6.636
25.7260,-1.8966,4.3194,4.7311,6.681
25.7290,-0.0067,3.5939,4.7088,5.924
25.7350,2.2985,3.0459,4.6553,6.019
25.7410,4.5147,3.6431,5.4439,7.956
25.7520,5.9184,4.6734,6.1825,9.751
25.7610,5.9480,5.7422,6.8235,10.720
25.8060,4.8815,6.2576,7.9508,11.234
25.8060,3.3784,6.7703,8.8786,11.665
25.8070,2.3578,7.4602,8.2956,11.403
25.8090,1.9674,8.2721,6.5798,10.751
25.8120,1.7602,9.3791,3.0490,10.018
25.8210,-0.6746,8.4074,-3.4448,9.111
25.8330,-4.5332,5.5500,-9.7267,12.081
25.8450,-7.5339,2.9796,-13.8518,16.047
25.8520,-9.1948,1.4014,-10.6046,14.106
25.8600,-8.3463,0.1114,-6.3097,10.463
25.9010,-4.8616,-0.8959,-5.2619,7.220
25.9010,-1.7528,-3.2198,-9.5477,10.227
25.9020,-0.0770,-6.8724,-15.0050,16.504
25.9030,3.3485,-12.3099,-13.9822,18.927
25.9130,12.7894,-16.4029,-2.8025,20.988
25.9230,23.1160,-17.2865,-0.5924,28.871
25.9370,9.7317,-8.6287,2.1843,13.188
25.9890,3.3904,2.1880,12.7157,13.341
25.9900,3.9109,8.0043,14.0050,16.598
25.9910,4.4935,12.0575,7.0902,14.692
25.9920,4.5155,11.8047,4.4761,13.408
25.9920,4.2605,7.9257,5.2299,10.408
25.9930,5.4924,5.2552,6.0953,9.744
26.0430,7.0892,2.4567,8.8846,11.629
26.0490,9.0104,-0.2784,11.3471,14.492
26.0500,10.2521,-3.2633,12.3010,16.342
26.0510,6.2511,-6.2559,11.8806,14.811
26.0520,2.1344,-7.2600,9.9134,12.472
26.0530,0.4992,-7.4557,8.0011,10.948
26.0610,0.7233,-7.0339,6.5662,9.650
26.0720,0.4226,-7.0408,6.5457,9.623
26.1150,-0.5366,-6.8876,8.8871,11.256
26.1170,-7.2354,-6.4732,-15.4454,18.243
26.1180,-10.9994,-5.7603,-17.2840,21.282
26.1200,-11.4923,-2.7406,-8.9640,14.830
26.1210,-9.3572,-0.6149,-2.9368,9.826
26.1340,-8.1694,0.7326,-2.4273,8.554
26.1420,-7.7421,1.9870,-3.9139,8.900
26.1520,-7.6477,2.1507,-4.5632,9.162
26.1600,-6.0147,2.7146,-4.2829,7.867
26.1990,-3.5667,2.9774,-4.0148,6.140
26.1990,-1.3032,2.5747,-3.4801,4.521
26.2000,1.1419,2.1450,-2.1791,3.264
26.2010,2.2155,1.7330,-0.9388,2.965
26.2120,1.8870,1.5205,0.4256,2.460
26.2210,1.4483,1.8579,2.2770,3.276
26.2370,1.8573,2.8217,3.8712,5.138
26.2400,2.5861,3.6346,5.1695,6.828
26.2730,2.5564,3.6175,5.0984,6.754
26.2740,2.8427,2.2329,4.7053,5.933
26.2750,2.7254,-0.2148,1.8222,3.286
26.2860,1.6925,-3.1912,-0.3164,3.626
26.2920,-0.2106,-6.2275,-7.8009,9.984
26.3010,-3.8698,-7.3985,-22.8230,24.302
26.3110,-8.5423,-7.2338,-28.4754,30.597
26.3220,-9.8401,-7.4436,-15.0911,19.493
26.3360,-8.4442,-7.1015,-0.3590,11.039
26.3400,-8.4101,-6.6409,6.7252,12.651
26.3830,-8.4609,-6.4199,2.7555,10.972
26.3860,-6.7352,-7.1372,-7.6379,12.435
26.3870,-5.5071,-9.1319,-11.8498,15.942
26.3880,-6.8117,-10.9764,-8.5650,15.500
26.3910,-9.2488,-10.4653,-5.1409,14.883
26.4040,-11.3303,-8.8799,-4.8498,15.190
26.4140,-11.0731,-6.8109,-5.8877,14.271
26.4650,-7.7556,-4.6705,-8.5631,12.462
26.4660,-3.6782,-3.8738,-9.5422,10.936
26.4670,-0.7856,-4.4929,-9.2597,10.322
26.4680,1.1931,-6.1335,-8.9942,10.952
26.4690,3.8912,-7.9404,-2.2211,9.117
26.4740,6.5884,-8.4983,3.4813,11.303
26.4850,6.5452,-8.5370,5.9387,12.288
26.4950,4.6304,-7.5080,5.9887,10.662
26.5190,4.6297,-6.5261,3.3842,8.688
26.5240,6.2110,-5.8015,2.1597,8.769
26.5260,6.3318,-5.6119,2.2222,8.748
26.5900,4.4465,-4.9347,5.7548,8.789
26.6020,3.3986,-3.7128,3.1200,5.922
26.6060,1.5372,-3.4830,-0.7220,3.875
26.6090,0.4000,-2.4296,-4.9456,5.525
26.6120,1.6244,-0.6971,-4.6810,5.004
26.6150,-0.1447,0.0627,1.3068,1.316
26.6200,0.8411,0.8977,5.5257,5.661
26.6210,0.3879,1.7155,7.0242,7.241
26.6220,1.2183,4.0688,5.6170,7.042
26.6230,0.8633,4.9036,6.4250,8.128
26.6340,0.5321,5.2293,6.8944,8.670
26.6410,-0.4281,5.0826,6.8250,8.520
26.7100,-0.9404,4.1766,5.8074,7.215
26.7230,0.1286,2.8083,4.0876,4.961
26.7260,1.4354,1.2200,3.5077,3.982
26.7280,4.3641,0.9711,4.1793,6.120
26.7310,7.0611,2.4902,5.0042,9.006
26.7380,7.1991,2.3894,5.2023,9.198
26.7390,6.4019,7.0761,6.1576,11.357
26.7400,4.3825,8.7696,6.9670,12.027
26.7410,3.0713,9.9089,6.5426,12.265
26.7570,1.9488,11.7168,5.7282,13.187
26.7580,2.0637,12.9720,3.7193,13.652
26.7640,-0.3255,11.6331,0.8824,11.671
26.7750,-4.8963,6.8289,-4.6531,9.605
26.8240,-5.0015,6.8185,-4.6239,9.638
26.8330,-8.2272,1.4864,-7.0914,10.963
26.8370,-6.3944,1.8042,-5.3850,8.552
26.8400,-3.2881,1.8518,-4.3892,5.788
26.8430,-2.1267,0.3379,-4.1671,4.691
26.8450,-1.4182,-1.3744,-4.9721,5.350
26.8500,-1.6001,-1.5674,-3.5592,4.205
26.8550,-1.2638,-0.3437,0.5840,1.434
26.8610,0.8378,1.8918,4.0362,4.536
26.8730,0.8479,1.9308,3.9759,4.500
26.9510,20.9660,-4.8801,-10.8630,24.112
26.9600,16.5028,-24.8757,-11.2832,31.913
26.9650,2.4811,-30.6557,-0.2386,30.757
26.9690,-2.6750,-14.7164,19.3622,24.467
26.9720,1.7298,1.4147,16.6580,16.807
26.9750,2.9952,7.3793,9.8092,12.635
26.9790,3.4595,8.9540,4.0722,10.427
26.9830,3.8139,8.7168,1.7060,9.666
26.9850,3.6826,7.6907,1.9234,8.741
26.9870,4.3566,6.8963,3.1301,8.737
26.9880,5.5464,5.6353,4.8116,9.256
26.9910,7.0390,4.0927,5.3775,9.758
27.0030,9.3619,1.9222,6.7065,11.675
27.0120,9.2210,-0.7358,7.3951,11.843
27.0610,6.4073,-4.7845,8.3636,11.571
27.0630,2.8306,-8.4090,8.9748,12.620
27.0640,0.2699,-9.7413,7.7556,12.455
27.0650,1.2002,-7.0669,5.6611,9.134
27.0660,2.7370,-3.8820,4.2158,6.351
27.0720,2.0311,-2.0918,4.4118,5.288
27.0810,-2.6659,-1.3543,-5.5179,6.276
27.1190,-8.4955,-2.1761,-15.2568,17.598
27.1210,-10.0096,-1.4577,-10.9411,14.900
27.1220,-9.3910,0.2302,-3.4531,10.008
27.1230,-8.8450,0.8025,-1.5989,9.024
27.1310,-6.7486,1.9953,-3.7856,7.991
27.1400,-4.6369,2.3011,-5.3490,7.444
27.1560,-2.8071,2.0697,-4.7986,5.932
27.1990,-1.4426,1.7335,-3.8503,4.462
27.2110,-0.2980,1.3675,-2.2299,2.633
27.2160,0.2490,1.2502,-0.8461,1.530
27.2170,0.1015,1.5134,0.7549,1.694
27.2180,-0.1511,2.1078,2.7760,3.489
27.2190,0.1820,2.7502,4.0809,4.924
27.2230,-0.2129,2.6787,5.3523,5.989
27.2310,-0.3957,1.5862,5.9876,6.207
27.2420,-0.8279,0.0822,2.8693,2.987
27.2670,-1.0945,-1.9890,-1.7276,2.853
27.2680,-1.2857,-4.3391,-9.1250,10.186
27.2930,-2.5144,-6.4787,-21.5067,22.602
27.2940,-4.1699,-7.2494,-22.1669,23.692
27.2950,-4.5029,-6.0490,-10.9098,13.262
27.3040,-3.0532,-4.5183,-2.1578,5.865
27.3110,-3.1654,-3.3861,2.1993,5.130
27.3210,-4.6668,-4.1225,0.7721,6.275
27.3310,-7.7880,-6.2158,-3.7355,10.642
27.3420,-9.7749,-7.9677,-6.4360,14.158
27.3870,-12.1945,-9.9297,-5.1563,16.550
27.3880,-13.4600,-10.7806,-1.5117,17.311
27.3900,-14.5821,-11.1538,-0.4355,18.364
27.3910,-12.0778,-8.6954,-4.0462,15.423
27.3920,-6.9582,-5.8120,-9.9848,13.487
27.4010,-3.8247,-4.9586,-11.8739,13.424
27.4120,-0.2410,-5.1748,-12.6666,13.685
27.4250,3.7366,-6.0931,-9.7821,12.115
27.4340,7.4305,-6.9256,-0.2609,10.161
27.4660,8.9771,-7.6403,2.8351,12.124
27.4720,6.8326,-7.6300,5.0672,11.427
27.4770,6.0968,-7.3581,4.2879,10.474
27.4820,6.8539,-6.6762,2.7995,9.969
27.4880,7.6357,-5.2820,2.8257,9.705
27.4930,6.9750,-3.6972,6.5024,10.228
27.5550,5.3694,-1.2647,5.2350,7.605
27.5620,4.1829,-0.5416,0.5646,4.255
27.5640,3.1990,-0.8840,-5.7280,6.620
27.5690,3.0778,-0.7871,-3.5415,4.758
27.5720,2.9854,0.1239,2.2803,3.759
27.5750,2.1804,0.8630,7.0419,7.422
27.5780,1.9731,1.7446,9.0915,9.465
27.5800,0.2679,2.4499,7.6379,8.026
27.5870,-0.8212,3.0587,5.6782,6.502
27.5930,-1.1765,3.4913,4.9545,6.174
27.6070,-2.0119,3.5613,4.7192,6.245
27.6110,-2.9962,3.6972,4.6270,6.637
27.6900,-2.1051,4.4540,4.8397,6.906
27.7010,-0.3710,4.5152,5.8103,7.368
27.7080,1.9734,4.5556,5.9291,7.733
27.7100,3.3143,4.6611,6.2010,8.436
27.7120,5.2405,5.2977,6.8999,10.156
27.7150,6.9430,6.1989,7.3049,11.832
27.7170,7.1903,7.0014,7.7197,12.662
27.7200,5.5188,7.1208,8.2540,12.219
27.7210,3.1247,7.1618,8.2609,11.371
27.7220,1.5853,7.5682,6.5901,10.160
27.7230,1.4746,8.3257,2.9254,8.947
27.7320,0.4703,8.0306,-5.9452,10.003
27.7410,-4.1136,4.5148,-12.9286,14.299
27.8270,-8.3281,-0.1810,-16.9221,18.861
27.8480,-9.9436,-3.1496,-9.9293,14.401
27.8520,-6.6893,-3.5447,-5.1758,9.171
27.8550,-2.4727,-2.1997,-3.9473,5.151
27.8580,-2.0062,-1.7250,-6.2299,6.768
27.8620,-2.5918,-2.2012,-7.7993,8.508
27.8660,-0.8696,-2.0266,-5.1855,5.635
27.8680,3.3126,-1.0117,2.2166,4.112
27.8680,15.6125,-1.0841,-0.0639,15.650
27.8690,29.3314,-6.6495,-4.0123,30.342
27.8700,20.0859,-15.1842,-6.4985,26.004
27.8720,4.6363,-12.4642,4.2976,13.976
27.8730,-0.8794,-3.6266,15.2678,15.717
27.8840,1.6212,3.1406,12.5549,13.043
27.8920,2.7056,6.3193,8.6388,11.040
27.9060,3.6552,6.4619,5.5972,9.298
27.9120,4.6887,5.5545,4.4065,8.500
27.9840,5.6571,4.4296,4.9415,8.720
27.9880,6.6847,2.8504,6.3377,9.642
27.9890,7.5343,0.8825,7.9656,11.000
27.9900,6.1360,-1.4965,9.4763,11.388
27.9910,4.9481,-3.2308,10.0256,11.638
27.9920,2.7805,-5.0894,10.3704,11.882
27.9930,0.9999,-6.3547,10.1553,12.021
27.9940,-1.0665,-7.1484,9.0024,11.545
28.0060,-1.1051,-6.3357,7.9401,10.218
28.0130,-1.3455,-5.2505,6.9740,8.833
28.0540,-1.1624,-3.7326,6.7441,7.795
28.0550,-2.1330,-2.5934,2.4647,4.165
28.0560,-7.3003,-3.2636,-14.1763,16.276
28.0570,-9.9234,-2.6376,-16.9103,19.784
28.0610,-9.9879,-0.2240,-12.2528,15.809
28.0730,-10.1018,0.7273,-6.0048,11.774
28.0800,-8.8539,1.8820,-2.9330,9.515
28.0940,-5.9720,2.7362,-3.1417,7.282
28.1010,-3.1038,2.7193,-3.9955,5.744
28.1310,-0.7616,1.9236,-4.0602,4.557
28.1320,0.9467,1.1207,-2.9747,3.317
28.1320,1.2681,0.9244,-1.4184,2.115
28.1400,1.5623,1.3920,0.6345,2.187
28.1550,1.9669,1.8940,3.1604,4.177
28.1600,2.5914,2.3743,4.9621,6.081
28.2200,1.0070,1.3801,3.5521,3.942
28.2350,0.4636,-0.0234,2.1019,2.153
28.2390,1.7129,-2.0116,-0.1155,2.645
28.2440,2.2549,-4.2188,-8.4479,9.708
28.2480,0.7111,-5.1602,-19.4093,20.096
28.2550,0.6622,-5.2139,-19.5902,20.283
28.2620,-4.9930,-6.4823,-13.3078,15.622
28.2660,-6.2123,-6.0479,-3.6109,9.392
28.2890,-7.3846,-5.5108,1.2332,9.296
28.2930,-9.7830,-5.6826,1.5513,11.420
28.2960,-10.9966,-5.6872,-1.4392,12.464
28.2990,-10.2535,-5.3787,-5.6079,12.865
28.3020,-10.1791,-4.8590,-8.1925,13.941
28.3050,-10.7150,-4.9913,-8.5843,14.609
28.3160,-11.3977,-6.3720,-6.0540,14.393
28.3710,-11.7095,-8.5392,-1.4614,14.566
28.3770,-8.8842,-9.6598,0.2909,13.127
28.3780,-3.6004,-8.1080,-4.2458,9.835
28.3800,1.9295,-7.1356,-12.5440,14.560
28.3830,5.6206,-7.6194,-9.0364,13.088
28.3850,5.8814,-7.5374,-8.7477,12.959
28.3880,8.7586,-6.4830,4.2598,11.700
28.4240,6.8055,-6.5808,4.2253,10.367
28.4250,7.0118,-6.5558,4.4827,10.594
28.4260,9.7142,-8.6965,0.9258,13.071
28.4270,10.1482,-8.4297,-1.2990,13.256
28.4880,8.4027,-5.7706,-2.0371,10.395
28.4990,7.6457,-2.9495,-0.4204,8.206
28.5040,4.2561,-1.0733,0.5923,4.429
28.5070,0.7160,-0.3780,3.0101,3.117
28.5100,0.7315,0.3613,6.2425,6.296
28.5140,-0.9102,0.4769,8.3158,8.379
28.5180,-3.9574,0.4334,6.2067,7.374
28.5210,-2.0213,1.6478,2.6467,3.716
28.5240,0.9391,2.8228,4.2932,5.223
28.5280,1.9160,3.4568,6.2985,7.436
28.5370,2.2735,4.3780,5.9910,7.761
28.5430,1.5021,4.6697,5.6944,7.516
28.5560,-0.2298,4.5394,5.0090,6.764
28.5610,-0.3470,4.4141,4.8656,6.579
28.6070,0.2436,4.2882,5.6148,7.069
28.6120,1.3336,3.9907,6.8862,8.070
28.6130,3.0548,4.6515,8.0230,9.764
28.6150,4.5288,5.7676,8.5720,11.281
28.6160,5.3837,6.5401,8.8510,12.251
28.6550,4.2800,6.8093,9.2065,12.225
28.6580,2.6036,6.6501,9.2038,11.650
28.6610,1.6503,7.5011,8.0352,11.115
28.6630,1.9447,8.3979,5.9855,10.494
28.6650,1.5436,8.6174,2.5517,9.119
28.6730,0.3847,7.2275,-2.9694,7.823
28.6810,-3.8414,3.3271,-10.7737,11.912
28.6960,-6.4828,0.1373,-15.2383,16.561
28.7720,-7.2484,-2.2137,-10.8715,13.253
28.7820,-5.1569,-3.4572,-5.7970,8.494
28.7880,-1.2158,-4.9253,-3.1105,5.951
28.7900,0.4829,-6.2755,-4.6740,7.840
28.7920,2.0486,-6.9930,-10.6152,12.876
28.7950,2.5568,-7.2638,-13.5288,15.567
28.7970,5.4181,-8.2191,-4.8385,10.969
28.7990,13.8387,-9.6561,3.2073,17.177
28.8030,15.3010,-10.6390,5.8404,19.530
28.8070,7.4582,-6.3846,3.6428,10.472
28.8070,4.7278,0.5070,8.3609,9.618
28.8120,5.8499,4.8864,11.0031,13.385
28.8240,5.9408,6.4924,8.0617,11.935
28.8320,5.6847,6.2983,6.1058,10.453
28.8840,6.2082,5.5828,4.9733,9.718
28.8910,6.3630,4.2706,5.5978,9.490
28.8930,6.4655,2.9223,6.4295,9.575
28.8940,6.2471,0.8819,7.3637,9.697
28.8950,4.5792,-0.9099,8.3431,9.561
28.8970,2.3466,-2.1612,9.0931,9.636
28.9050,1.1534,-2.9500,9.4990,10.013
28.9120,0.1317,-3.6180,9.6250,10.283
28.9570,-0.7441,-4.0100,9.1456,10.014
28.9580,-0.9165,-4.5731,8.1664,9.404
28.9590,-1.4666,-5.5316,7.3413,9.308
28.9590,-2.2328,-5.7031,8.1175,10.169
28.9600,-2.8049,-4.9672,6.4164,8.586
28.9730,-6.4662,-4.8532,-11.6122,14.150
28.9800,-9.3842,-4.0046,-18.9845,21.552
28.9970,-10.1526,-1.3180,-13.8769,17.245
29.0040,-10.6705,0.0362,-5.2723,11.902
29.0600,-9.9616,1.6990,-0.5538,10.121
29.0610,-6.9648,2.7025,-1.7679,7.677
29.0610,-4.0203,2.4281,-3.6095,5.923
29.0620,-2.0576,1.6877,-3.8740,4.700
29.0630,0.1024,0.6492,-2.9696,3.041
29.0630,1.3496,-0.1115,-2.0105,2.424
29.1180,1.4133,-0.1083,-1.1310,1.813
29.1270,1.2358,0.5335,1.2221,1.818
29.1360,1.5146,1.6336,4.2597,4.807
29.1370,1.6899,2.2292,4.8055,5.560
29.1380,2.4600,2.9227,2.9334,4.816
29.1390,3.3562,2.8063,-2.7073,5.145
29.1400,2.7081,1.0094,-9.4338,9.867
29.1600,-0.3523,-1.9426,-14.5779,14.711
29.1610,-4.1287,-4.5237,-11.9793,13.454
29.1620,-7.6711,-6.1651,-4.0691,10.649
29.1740,-9.2009,-6.1433,-0.8299,11.094
29.1850,-10.6396,-5.8473,-2.6392,12.424
29.2180,-9.5603,-5.2592,-5.2653,12.115
29.2200,-7.7237,-5.6518,-6.5208,11.581
29.2220,-6.3981,-6.1829,-5.5704,10.497
29.2250,-6.3859,-6.4969,-4.2117,10.036
29.2600,-6.6504,-6.4947,-6.5762,11.387
29.2610,-7.1645,-7.6182,-9.1764,13.913
29.2710,-9.1701,-10.2050,-5.7038,14.858
29.2720,-10.2041,-10.9754,0.2054,14.987
29.3010,-8.2505,-8.4852,-1.2824,11.904
29.3020,-3.5639,-4.1828,-11.7494,12.971
29.3030,-0.4706,-4.1518,-13.4247,14.060
29.3040,3.9867,-6.0124,-1.8686,7.452
29.3450,7.5482,-6.5886,5.0349,11.213
29.3530,7.8792,-6.9498,5.3385,11.785
29.3570,5.0546,-7.0750,4.0502,9.592
29.3610,4.3623,-7.5906,2.8810,9.217
29.3650,6.6211,-8.2533,0.0107,10.581
29.3680,8.0281,-9.0617,-3.1169,12.501
29.3880,6.6615,-7.5202,-3.2954,10.573
29.3920,5.1800,-4.6478,-1.3431,7.088
29.3960,4.3839,-2.0652,0.8537,4.921
29.4010,2.6832,-0.5229,3.7740,4.660
29.4150,0.0466,-0.1892,9.5797,9.582
29.4300,-0.6277,-0.2782,11.0131,11.034
29.4320,-2.0513,0.1275,7.7789,8.046
29.4860,-1.6213,0.8827,4.4226,4.792
29.4930,-0.8731,1.8094,3.4715,4.011
29.4960,0.3654,2.7390,5.0271,5.737
29.4980,1.3806,3.6314,6.1709,7.292
29.5000,0.8301,3.7753,6.5420,7.599
29.5020,0.3126,3.9055,6.2813,7.403
29.5040,0.4106,4.0642,5.6580,6.979
29.5130,1.0653,4.2743,5.7489,7.243
29.5270,2.2245,4.8871,6.5521,8.471
29.5800,3.6161,5.9429,7.4258,10.175
29.5810,4.4100,6.5662,8.1046,11.325
29.5820,4.3727,7.1981,8.7957,12.178
29.5820,4.0754,7.9427,9.1186,12.761
29.5830,3.1469,8.6423,9.0701,12.917
29.5830,1.1331,8.5001,9.5526,12.837
29.5950,0.2251,8.5369,7.3896,11.293
29.6010,1.1342,8.8108,4.0975,9.783
29.6120,0.7482,7.7298,-3.6953,8.600
29.6230,-3.8048,3.9401,-12.1501,13.328
29.6350,-8.1138,-0.9569,-16.4354,18.354
29.6900,-7.7526,-3.2703,-10.8911,13.763
29.6910,-3.5435,-3.7575,-5.2448,7.361
29.6910,-1.1046,-4.3620,-5.2144,6.887
29.6920,-0.0980,-5.2776,-7.8259,9.440
29.6920,0.3856,-5.7567,-12.2558,13.546
29.6930,1.0144,-6.2919,-13.3850,14.825
29.7010,5.4981,-8.1576,-2.3423,10.112
29.7160,17.5344,-11.1867,7.6373,22.157
29.7250,17.4797,-14.0843,6.9999,23.514
29.7690,6.9176,-8.0958,4.2122,11.452
29.7700,2.4943,0.1882,14.5230,14.737
29.7710,2.7353,5.3581,11.6332,13.097
29.7720,3.7856,8.2144,8.2874,12.267
29.7730,4.8799,7.6909,4.8775,10.332
29.7820,6.5412,5.4720,3.5082,9.222
29.8250,7.7154,3.4599,4.6826,9.666
29.8310,9.0469,0.6159,8.4837,12.418
29.8320,9.0467,-1.3999,10.6192,14.020
29.8320,6.4754,-3.6278,12.0182,14.125
29.8330,2.6828,-5.3171,12.0336,13.427
29.8750,0.2759,-5.9596,10.8533,12.385
29.8770,-0.0252,-5.2987,8.9732,10.421
29.8780,0.0191,-4.5713,8.0676,9.273
29.8790,-0.5093,-3.8406,7.9330,8.828
29.8830,-1.4788,-2.9845,8.8318,9.439
29.9270,-2.7483,-2.5997,8.4131,9.225
29.9320,-3.1584,-2.4129,5.3818,6.690
29.9360,-6.4299,-3.7447,-5.6684,9.354
29.9380,-11.6558,-4.7147,-17.5217,21.566
29.9430,-12.9758,-2.7950,-17.6049,22.048
29.9440,-12.0182,-0.5106,-11.9920,16.986
29.9510,-10.6172,0.6720,-5.2024,11.842
29.9640,-7.0840,1.7702,0.1886,7.304
30.0050,-4.2246,2.2505,0.4749,4.810
30.0070,-2.0372,2.2462,-0.7713,3.129
30.0070,0.8957,2.1815,-2.0717,3.139
30.0080,3.1611,2.1058,-2.9891,4.833
30.0610,3.7216,1.5409,-1.9888,4.492
30.0820,2.9809,1.0622,0.0263,3.165
30.0860,2.2844,1.0473,1.9369,3.173
30.0940,1.7888,0.9131,3.5526,4.081
30.0960,1.6121,0.7804,5.1893,5.490
30.1000,2.3558,-0.4490,3.1593,3.966
30.1030,2.1762,-2.8614,-4.6678,5.892
30.1070,0.4855,-4.7547,-15.1252,15.862
30.1080,-2.3535,-6.3639,-20.5847,21.674
30.1090,-4.8437,-7.3177,-13.9127,16.449
30.1120,-6.2690,-6.9108,-2.7782,9.735
30.1250,-8.1592,-6.0943,1.9680,10.372
30.1320,-10.6669,-5.7146,3.9348,12.725
30.1990,-11.2052,-5.5487,2.1203,12.682
30.2050,-10.4384,-5.9210,-2.2219,12.205
30.2070,-9.2606,-6.0584,-7.7470,13.508
30.2100,-8.7238,-6.5591,-9.8783,14.721
30.2120,-9.4651,-8.4403,-6.2614,14.143
30.2140,-10.4000,-9.6971,-0.6533,14.235
30.2170,-9.6459,-8.1620,1.2336,12.696
30.2190,-7.5992,-5.5417,-3.4917,10.032
30.2220,-5.0605,-4.6481,-8.2478,10.735
30.2500,-1.5037,-5.0676,-9.8238,11.156
30.2510,1.7405,-6.6061,-9.0702,11.355
30.2600,5.5141,-7.2453,-3.2985,9.684
30.2620,7.2903,-6.9277,1.7349,10.205
30.3080,5.9420,-6.6787,3.5230,9.609
30.3130,3.4013,-7.0664,4.8251,9.208
30.3150,4.5407,-7.4318,3.9281,9.554
30.3170,6.7760,-7.2324,3.1157,10.389
30.3210,6.9311,-7.2356,3.3856,10.576
30.3240,6.3401,-4.9170,5.0816,9.497
30.3680,6.0111,-2.4972,0.8926,6.570
30.3760,3.2484,-1.7243,0.7219,3.748
30.3800,0.7635,-1.4726,0.4186,1.711
30.3830,1.8795,0.3025,-2.2323,2.934
30.3870,1.6966,1.9105,1.5090,2.967
30.3920,1.2114,2.5254,6.5647,7.137
30.3960,2.6573,3.4732,8.0938,9.200
30.4180,2.5416,3.7415,8.3951,9.536
30.4270,1.2169,3.7242,7.3316,8.313
30.4300,-0.9117,3.8836,5.5190,6.810
30.4330,-1.8597,3.8698,4.6726,6.346
30.4710,-2.6811,3.6180,4.3049,6.230
30.4710,-1.8712,3.4580,5.4494,6.720
30.4720,-0.0264,3.4590,6.1110,7.022
30.4740,2.5777,3.7367,6.7483,8.133
30.4800,4.6616,4.5006,7.5219,9.928
30.5190,5.9879,5.3877,7.4844,10.995
30.5290,6.5978,6.3897,7.3512,11.764
30.5320,4.9342,6.9040,8.1659,11.777
30.5350,3.2763,7.2116,8.5320,11.642
30.5360,1.7677,7.6932,8.0193,11.253
30.5420,1.5591,8.6378,6.1623,10.725
30.5540,1.0028,8.9798,2.6268,9.410
30.5610,-1.5374,7.5297,-3.3779,8.395
30.6170,-6.2433,3.8177,-11.3313,13.489
30.6190,-8.9299,0.6780,-15.7259,18.097
30.6220,-9.1870,-1.8099,-10.7568,14.261
30.6240,-6.5275,-3.5075,-4.1673,8.502
30.6270,-2.4643,-5.0755,-2.2197,6.063
30.6290,-0.3742,-6.9342,-5.8742,9.096
30.6440,1.0871,-8.8145,-10.1853,13.514
30.6460,2.0560,-10.8940,-9.9288,14.882
30.6530,9.2875,-14.2548,-2.5637,17.206
30.6980,18.2629,-16.5922,2.1431,24.767
30.6990,8.9972,-12.4203,0.4019,15.342
30.7000,2.1332,-3.8060,5.6678,7.153
30.7000,4.2654,4.1850,13.4699,14.736
30.7560,5.0206,7.3052,8.9996,12.632
30.7650,4.4525,7.9452,5.8428,10.821
30.7670,4.6089,7.3160,4.3320,9.671
30.7690,5.6655,5.9235,4.1101,9.169
30.7740,6.8202,4.4730,4.7168,9.422
30.7780,8.2116,2.2888,6.0272,10.440
30.7800,7.7738,0.4709,7.1790,10.592
30.7810,4.2478,-1.5556,8.8396,9.930
30.7820,1.3891,-2.7254,9.9754,10.434
30.8020,1.5026,-2.3164,9.7897,10.172
30.8030,1.7049,-1.5002,9.0173,9.299
30.8110,0.8052,-1.2922,8.8807,9.010
30.8200,-0.3137,-2.3574,8.6749,8.995
30.8310,-1.5955,-3.0877,8.2445,8.947
30.8870,-3.1505,-3.6009,7.6503,9.023
30.8950,-3.1876,-3.6037,7.6855,9.067
30.8960,-3.5087,-3.4795,2.3572,5.475
30.8970,-8.9723,-5.0334,-14.4764,17.760
30.8980,-14.1358,-5.6289,-20.5242,25.549
30.8990,-13.8701,-2.9236,-16.7913,21.974
30.9380,-10.4570,0.4066,-10.0513,14.510
30.9400,-7.4167,2.0711,-2.9436,8.244
30.9410,-5.1501,2.2087,2.3608,6.081
30.9410,-3.1282,1.7561,3.8650,5.273
30.9820,-0.2408,1.0978,2.5293,2.768
30.9820,2.0341,0.5156,0.2364,2.112
30.9830,2.3176,-0.2538,-1.8193,2.957
30.9840,1.1762,-0.3569,-2.9843,3.227
30.9850,0.2405,0.0675,-3.5065,3.515
31.0550,0.8330,0.4146,-2.8527,3.001
31.0680,1.9901,-0.6485,-1.4521,2.548
31.0710,1.9343,-2.4004,-1.2199,3.315
31.0750,0.8736,-3.6259,-4.4258,5.788
31.0780,-0.8929,-3.6387,-9.5124,10.224
31.0830,-3.4534,-3.9528,-12.1893,13.271
31.0860,-5.7421,-5.2243,-9.6268,12.367
31.0900,-5.8341,-5.2688,-9.6569,12.452
31.0940,-8.5926,-6.6482,-2.2668,11.098
31.0980,-11.1809,-6.5926,-0.1248,12.980
31.1020,-11.6194,-6.4522,-2.3370,13.495
31.1050,-9.7629,-5.9652,-7.5023,13.681
31.1190,-7.2227,-5.7828,-10.2159,13.783
31.1210,-7.2374,-5.7842,-10.1868,13.770
31.1830,-7.6407,-8.6029,-7.2244,13.586
31.1880,-7.8089,-8.4342,-3.6455,12.058
31.1900,-7.1170,-7.3537,-0.1784,10.235
31.1920,-5.9771,-6.7900,-1.1846,9.123
31.1940,-2.0131,-5.5489,-9.8486,11.482
31.1950,1.5986,-5.5065,-12.3214,13.590
31.1970,4.6603,-6.0510,-1.7910,7.845
31.2390,6.0639,-6.4015,3.4279,9.460
31.2430,4.0012,-6.6881,5.8515,9.746
31.2460,3.7337,-7.2340,5.4744,9.810
31.2490,6.3196,-7.7904,3.2365,10.541
31.2510,7.4037,-7.8584,1.3774,10.884
31.2650,5.9275,-6.4961,-0.1867,8.796
31.2650,4.4821,-4.0939,2.6383,6.619
31.2770,1.8516,-1.8111,3.5816,4.420
31.2800,-0.9089,-1.2785,2.2050,2.706
31.3310,0.1626,-0.1280,3.0685,3.075
31.3360,-1.6472,-0.2310,5.7262,5.963
31.3370,-2.5151,-0.2363,4.2720,4.963
31.3410,-1.0838,0.5022,2.9982,3.227
31.3440,0.7051,1.4114,5.1852,5.420
31.3450,0.8770,1.3767,5.3261,5.571
31.3840,1.2732,3.3246,7.8045,8.578
31.3870,0.4964,3.7675,6.9966,7.962
31.3900,0.0600,4.2898,5.2342,6.768
31.3930,-0.2489,4.6258,4.4380,6.415
31.3960,0.2940,4.8102,4.3877,6.517
31.4070,2.0329,4.8813,5.2726,7.467
31.4130,3.6287,5.0071,6.5098,8.979
31.4210,5.0046,5.9335,7.2623,10.630
31.4650,4.8399,6.3918,7.1634,10.751
31.4700,4.3727,6.5897,7.5104,10.906
31.4750,2.9997,6.4953,7.9647,10.706
31.4770,1.9312,6.9745,6.8757,9.982
31.4790,1.2927,7.7671,4.9903,9.322
31.4820,1.0605,8.3551,1.1286,8.497
31.5010,-0.3390,7.7587,-3.9220,8.700
31.5030,-4.1930,4.6984,-9.5281,11.421
31.5590,-7.0680,1.4495,-13.5839,15.381
31.5600,-9.0967,-1.9554,-10.8916,14.325
31.5610,-7.7733,-3.8891,-6.5611,10.890
31.5610,-4.3969,-4.8443,-4.3695,7.867
31.5620,-2.7471,-5.4986,-4.0531,7.363
31.5630,-1.7986,-5.1550,-3.2200,6.339
31.5740,-2.1264,-2.7858,-0.3017,3.518
31.5840,-1.3271,1.0605,5.1760,5.448
31.6010,2.4303,2.5184,7.0105,7.836
31.6040,11.3295,-0.0472,4.8524,12.325
31.6830,20.6842,-6.9814,1.7726,21.903
31.6940,14.7016,-20.3342,-14.2260,28.844
31.6970,3.0274,-19.2634,3.7400,19.855
31.7000,3.7208,-4.7532,16.0011,17.102
31.7040,2.9337,1.1186,9.6018,10.102
31.7050,3.0144,3.7803,4.6622,6.717
31.7110,3.1353,4.6627,2.3547,6.092
31.7140,3.5522,4.7417,1.8312,6.201
31.7160,3.9951,4.4095,2.1177,6.316
31.7170,4.0509,4.1912,2.5151,6.348
31.7180,3.4065,3.8777,3.1720,6.058
31.7220,2.9025,3.2463,3.9232,5.861
31.7320,2.8805,2.0460,5.0831,6.190
31.7850,2.6844,0.6310,6.1976,6.783
31.7880,1.2938,-1.2045,6.9073,7.130
31.7890,-0.7910,-2.4365,6.1745,6.685
31.7920,-1.5860,-2.7889,5.5697,6.428
31.7930,-1.3415,-2.3383,4.7675,5.477
31.7940,-2.3328,-1.7571,4.8157,5.632
31.8010,-3.7966,-1.5370,5.7748,7.080
31.8550,-5.3654,-1.5815,4.8386,7.396
31.8570,-7.7779,-1.7898,-4.8251,9.326
31.8580,-10.1257,-1.6298,-11.4783,15.393
31.8590,-9.6445,-0.1510,-12.7307,15.972
31.8610,-8.1364,1.2451,-10.2044,13.110
31.8630,-6.0016,1.6867,-5.9513,8.619
31.8720,-3.5450,1.3976,-1.4090,4.063
31.8850,-0.9106,1.0820,0.6366,1.551
31.9450,1.7363,0.3904,1.6693,2.440
31.9620,2.6062,-0.8090,1.5892,3.158
31.9660,1.9463,-1.5694,0.7992,2.625
31.9700,1.7568,-1.9160,-0.7197,2.697
31.9730,1.9120,-1.8032,-3.1617,4.111
31.9770,1.4514,-1.5549,-6.2421,6.595
31.9810,-0.3215,-2.0498,-12.2693,12.444
31.9860,-2.6305,-3.1865,-15.9834,16.509
31.9920,-4.0782,-4.9649,-12.0951,13.696
31.9970,-4.8603,-6.0552,-3.4422,8.493
32.0000,-6.1250,-5.8795,-0.7536,8.524
32.0030,-7.8625,-5.7763,-0.7026,9.782
32.0120,-7.6802,-5.4981,-1.9635,9.647
32.0210,-6.9834,-5.8931,-5.3013,10.564
32.0320,-6.8551,-6.1382,-7.9331,12.149
32.1050,-7.1145,-6.0297,-8.8537,12.859
32.1140,-8.3713,-6.7308,-7.6273,13.174
32.1160,-10.0810,-7.8476,-5.4669,13.896
32.1190,-11.0301,-7.7384,-1.9631,13.616
32.1240,-10.5930,-6.7276,-0.0785,12.549
32.1280,-7.6324,-5.0340,-4.4873,10.185
32.1310,-7.4839,-4.9467,-4.2479,9.926
32.1340,0.8721,-4.8822,-11.3928,12.425
32.1370,4.3228,-6.0012,-0.1975,7.399
32.1400,6.2280,-6.4956,4.6679,10.138
32.1580,6.6303,-6.7137,5.8181,11.085
32.1630,4.3880,-7.0823,5.1549,9.797
32.1650,5.3971,-7.3581,2.5121,9.465
32.1720,7.1900,-7.3492,0.9247,10.323
32.1820,7.9417,-7.1521,-0.8435,10.721
32.1960,6.2021,-5.7412,3.1717,9.027
32.2010,2.5188,-3.7458,4.3542,6.272
32.2680,-1.3406,-3.6123,5.3997,6.633
32.2840,-2.6905,-3.1538,2.1339,4.663
32.2890,-0.5042,-1.1045,-4.4671,4.629
32.2940,-1.0322,0.4445,-3.2074,3.399
32.3140,1.0215,1.5949,3.3381,3.838
32.3170,2.6210,2.3209,7.8392,8.585
32.3200,4.1410,3.7738,7.5972,9.440
32.3210,3.9797,4.6525,7.3146,9.539
32.3220,2.3783,4.8722,7.0261,8.875
32.3230,0.9615,5.0225,5.5553,7.551
32.3240,0.2696,5.2683,4.3987,6.869
32.3250,0.9283,5.4482,4.1218,6.894
32.3320,1.7687,5.1304,4.5678,7.093
32.3470,2.8445,4.8194,5.0718,7.553
32.3520,4.4382,5.0789,5.7799,8.883
32.4200,5.7191,5.8031,6.0335,10.138
32.4310,6.0029,6.6437,5.9797,10.767
32.4340,5.3181,7.3647,6.1500,10.970
32.4360,3.5342,7.4549,6.0857,10.252
32.4380,2.1577,7.5789,5.3508,9.525
32.4420,1.6547,7.8231,4.0613,8.968
32.4440,0.6953,7.6200,0.0413,7.652
32.4470,-2.1321,5.1818,-6.7484,8.771
32.4500,-7.5064,0.9811,-11.7383,13.968
32.4620,-11.4591,-2.5367,-13.2808,17.724
32.4630,-10.3080,-3.3417,-7.2390,13.032
32.4720,-5.5936,-2.8881,-3.8435,7.376
32.5370,-3.2905,-3.0965,-3.2365,5.558
32.5450,-1.4057,-3.3117,-4.7135,5.930
32.5510,-1.0228,-2.6157,-4.1618,5.021
32.5530,-0.3070,-0.1401,0.8367,0.902
32.5550,1.5720,3.1934,7.3038,8.125
32.5580,6.3157,4.2945,8.3630,11.326
32.5600,15.7668,2.0073,4.6529,16.561
32.5630,20.3687,-5.6602,3.9018,21.498
32.5650,10.3173,-19.4767,-12.4964,25.337
32.5790,0.2862,-19.4569,3.8048,19.827
32.5820,3.5603,-5.3594,13.7518,15.183
32.6440,3.3168,1.5369,10.4349,11.057
32.6550,3.0387,4.0824,5.6905,7.634
32.6600,2.7990,4.5860,2.6094,5.973
32.6620,3.4163,4.6285,1.3872,5.918
32.6630,4.3424,4.0638,1.7130,6.189
32.6640,5.0218,3.2305,2.5512,6.493
32.6650,4.8943,2.5742,3.0068,6.295
32.6660,3.8650,1.5074,3.3927,5.359
32.6980,2.9842,0.1331,3.8140,4.844
32.6990,1.8338,-2.1282,4.5038,5.308
32.7000,0.2039,-4.5383,5.5604,7.180
32.7010,-1.1555,-5.2313,5.5086,7.684
32.7120,-1.4143,-3.9925,5.1330,6.655
32.7200,-1.6282,-2.0644,4.4046,5.130
32.7310,-2.8674,-0.8805,3.8903,4.912
32.7400,-3.5951,0.2526,3.1450,4.783
32.7900,-4.3565,0.9714,3.2572,5.526
32.8000,-7.0307,0.3727,-7.2041,10.073
32.8010,-8.7296,-0.0065,-12.3734,15.143
32.8020,-8.4189,0.6045,-10.4105,13.402
32.8030,-7.0779,1.5483,-6.2961,9.599
32.8040,-5.3752,1.6698,-1.9301,5.950
32.8140,-3.6740,0.9234,1.3868,4.034
32.8200,-1.5280,0.3866,2.2235,2.726
32.8590,0.7950,-0.0895,2.1808,2.323
32.8600,0.9843,-0.3845,2.4863,2.702
32.8600,0.7295,-0.0892,2.2267,2.345
32.8650,0.7338,-0.1149,2.0766,2.205
32.8750,1.9099,0.0050,-0.6528,2.018
32.8850,3.5803,-1.3571,-4.5899,5.977
32.9140,3.3232,-3.7181,-14.9670,15.776
32.9250,0.3891,-4.8274,-20.6832,21.243
32.9290,-2.9500,-4.6583,-15.4921,16.444
32.9310,-5.6316,-4.5636,-5.7085,9.227
32.9350,-6.4139,-4.6877,0.0754,7.945
32.9810,-8.4531,-5.0867,-0.1051,9.866
32.9860,-8.3636,-5.5434,-2.7847,10.413
32.9900,-7.8068,-6.1890,-4.3827,10.884
32.9950,-7.1495,-6.6882,-5.9289,11.445
33.0000,-6.7492,-6.3749,-8.0694,12.301
33.0030,-7.2515,-6.0590,-9.8653,13.661
33.0070,-7.3840,-6.2307,-9.5618,13.593
33.0190,-8.3429,-8.0939,-5.5068,12.862
33.0270,-8.3386,-8.9648,-1.3999,12.323
33.0390,-6.1300,-7.5061,-1.8451,9.865
33.0420,-1.2280,-4.2249,-11.1070,11.947
33.1160,2.1695,-3.9077,-16.4634,17.059
33.1210,4.4805,-5.1886,-4.9098,8.432
33.1320,5.4170,-5.3653,4.5618,8.885
33.1350,5.2612,-5.1011,5.1505,8.957
33.1390,3.8997,-5.4223,4.9445,8.310
33.1450,4.7018,-6.3965,2.7967,8.417
33.1490,6.9593,-7.4964,0.0587,10.229
33.1520,8.0204,-7.9795,-2.4915,11.585
33.1540,6.9381,-6.2037,-1.4391,9.418
33.1570,5.3503,-3.1875,1.6439,6.441
33.1570,1.7314,-2.0071,7.8975,8.331
33.1670,-3.1495,-2.4632,9.1058,9.945
33.1720,-1.7063,-1.7058,2.3882,3.395
33.2330,-2.9438,-0.6201,-1.5987,3.407
33.2420,-3.4336,0.4074,0.1603,3.461
33.2450,-0.4244,2.0032,3.5954,4.138
33.2480,1.9851,2.8061,6.8779,7.689
33.2510,2.4132,4.0169,7.3231,8.694
33.2550,1.4701,4.6247,6.4390,8.063
33.2590,0.1727,4.6300,5.5413,7.223
33.2710,-0.6557,4.4609,5.0413,6.763
33.2720,-0.1294,4.4569,4.4335,6.288
33.2720,1.3444,4.8264,4.3150,6.612
33.2810,3.4640,5.2575,5.1180,8.114
33.2920,5.0467,6.0108,6.1258,9.956
33.3460,6.0884,6.8356,6.7819,11.392
33.3520,5.9158,7.3935,6.6665,11.580
33.3530,4.6002,7.0636,6.4458,10.612
33.3550,3.0986,6.6299,6.6442,9.884
33.3560,1.9680,6.3915,6.6852,9.456
33.3580,1.7281,6.8444,4.4605,8.350
33.4030,2.0514,7.6755,0.6420,7.971
33.4060,0.5206,7.0809,-4.9599,8.661
33.4120,-3.0904,4.2757,-9.6661,11.012
33.4150,-6.3699,0.7372,-13.3381,14.799
33.4170,-6.0666,-0.6334,-11.6829,13.179
33.4200,-3.2112,-1.2446,-6.4871,7.345
33.4230,-3.2603,-1.2534,-6.4630,7.347
33.4390,-0.3591,-4.3074,-4.0854,5.948
33.4410,0.3715,-4.5742,-5.2315,6.959
33.5110,-0.6537,-2.5722,-4.1303,4.909
33.5220,-0.3105,1.0133,1.5272,1.859
33.5270,3.2025,3.2333,6.6651,8.070
33.5310,10.3108,1.4550,7.8969,13.069
33.5350,18.8102,-8.3803,5.8894,21.418
33.5390,15.6725,-26.2057,-3.6654,30.754
33.5450,0.4489,-24.3539,6.1419,25.120
33.5510,2.2100,-6.6674,14.2887,15.922
33.5570,3.2747,2.4876,6.8725,8.009
33.5600,3.0609,5.6966,3.6254,7.414
33.5650,5.6242,10.6114,-10.4641,15.929
33.5670,3.0428,7.9795,-1.8639,8.741
33.5760,1.6552,4.3814,2.1746,5.164
33.5810,2.7996,3.3495,2.6832,5.124
33.5920,4.5224,2.5333,3.5014,6.255
33.6360,5.1115,1.3555,4.1035,6.694
33.6440,4.6811,0.1229,4.1394,6.250
33.6470,3.3674,-0.9780,4.2104,5.479
33.6500,1.5510,-1.8385,4.0682,4.726
33.6530,0.0118,-2.0899,4.1101,4.611
33.6560,-0.1404,-1.0675,5.7066,5.807
33.6710,-0.3145,-1.0820,5.5510,5.664
33.6740,-2.1646,-0.0923,6.8928,7.225
33.7400,-3.6092,0.3170,6.6510,7.574
33.7500,-4.3074,1.0338,6.9095,8.208
33.7520,-4.6428,1.5440,7.0243,8.560
33.7540,-5.3025,0.7517,3.7073,6.514
33.7560,-5.5833,-0.0715,-2.4011,6.078
33.7590,-5.0567,-0.1798,-8.5527,9.937
33.7650,-3.7073,0.3038,-11.9100,12.477
33.7680,-2.2022,0.9028,-11.9177,12.153
33.7700,-0.0116,0.8139,-9.0102,9.047
33.7790,1.7185,-0.4648,-4.7147,5.040
33.7810,3.0076,-2.1524,-0.0858,3.699
33.7920,2.9838,-2.7851,-0.2268,4.088
33.8480,1.1555,-2.8468,-3.7273,4.830
33.8560,-0.7087,-2.9856,-7.3193,7.937
33.8590,-1.0887,-2.4877,-9.7375,10.109
33.8630,-0.4088,-2.0496,-9.5280,9.755
33.8660,-0.7471,-2.2646,-8.3762,8.709
33.8690,-2.2279,-2.6731,-7.1379,7.941
33.8720,-4.7144,-3.3992,-5.0378,7.692
33.8810,-6.1940,-4.1229,-2.5913,7.879
33.8860,-8.0634,-4.9359,0.3779,9.462
33.9170,-9.0527,-5.2573,1.3155,10.551
33.9210,-9.3641,-5.6763,-3.3158,11.441
33.9240,-8.8570,-6.1125,-8.7250,13.854
33.9280,-7.8889,-6.0737,-10.7712,14.668
33.9560,-7.6855,-5.8741,-8.8670,13.122
33.9590,-8.6391,-6.9353,-6.8425,13.021
33.9590,-10.5322,-8.7811,-5.2549,14.685
