time,ax,ay,az,aT
0.7840,-0.2683,-0.1641,-0.2532,0.404
0.7900,-0.2278,-0.1807,-0.0587,0.297
0.7990,-0.1923,-0.1160,0.1192,0.254
0.8120,-0.1647,0.0145,0.2086,0.266
0.8200,-0.0393,0.0698,0.0936,0.123
0.8310,0.0496,0.0966,-0.0223,0.111
0.8390,0.0328,0.1113,0.0343,0.121
0.8510,-0.1019,0.1134,0.2782,0.317
0.8590,-0.1167,0.1565,0.5814,0.613
0.8710,-0.0320,0.2031,0.6756,0.706
0.8790,0.1047,0.2472,0.5573,0.619
0.8910,0.0967,0.2353,0.3871,0.463
0.8990,-0.0188,0.1465,0.2020,0.250
0.9130,-0.1182,0.0923,0.1422,0.207
0.9200,-0.0673,0.0876,0.1072,0.154
0.9320,0.0439,0.1120,0.0471,0.129
0.9410,0.0644,0.0980,-0.0419,0.125
0.9530,0.0142,-0.0011,-0.0895,0.091
0.9600,-0.0091,-0.1047,-0.1024,0.147
0.9810,0.0907,-0.0992,-0.0479,0.143
0.9870,0.1261,-0.0785,0.0537,0.158
0.9900,0.1339,-0.1254,0.0840,0.202
1.0000,0.1710,-0.2057,0.1019,0.286
1.0100,0.2405,-0.2428,0.1590,0.377
1.0200,0.2917,-0.2580,0.1733,0.426
1.0310,0.2506,-0.2105,0.1482,0.359
1.0400,0.1865,-0.1861,0.0617,0.271
1.0530,0.1335,-0.2041,-0.0471,0.248
1.0590,0.0573,-0.2359,-0.2148,0.324
1.0700,0.0303,-0.1225,-0.4234,0.442
1.0810,0.1454,-0.0342,-0.4869,0.509
1.0910,0.5172,-0.0555,-0.4531,0.690
1.1030,0.4658,-0.1025,-0.3015,0.564
1.1100,-0.0605,-0.1414,-0.0366,0.158
1.1230,-0.3679,-0.0590,-0.2384,0.442
1.1340,-0.4245,0.1125,-0.5046,0.669
1.1400,-0.3674,0.2126,-0.6109,0.744
1.1520,-0.2556,0.1248,-0.6102,0.673
1.1590,-0.1600,0.0503,-0.4143,0.447
1.1710,-0.0461,-0.0692,-0.2178,0.233
1.1830,0.0231,-0.0747,-0.1883,0.204
1.1900,-0.0261,-0.0030,-0.1272,0.130
1.2030,-0.0723,0.0960,0.0612,0.135
1.2160,-0.0835,0.1681,0.2538,0.316
1.2220,-0.1113,0.1611,0.3275,0.382
1.2330,-0.1098,0.1493,0.2592,0.319
1.2460,-0.1316,0.1432,0.1345,0.236
1.2510,-0.1416,0.1446,-0.0111,0.203
1.2650,-0.1613,0.1823,-0.0850,0.258
1.2710,-0.1310,0.1539,-0.1465,0.250
1.2800,-0.0662,0.1144,-0.1331,0.188
1.2910,-0.0194,0.0466,-0.0827,0.097
1.2990,-0.0128,-0.0230,-0.0420,0.050
1.3100,-0.0276,-0.0325,-0.0084,0.043
1.3310,-0.0448,0.0275,-0.0193,0.056
1.3330,-0.0302,0.0691,-0.1149,0.137
1.3400,-0.0171,0.0222,-0.2157,0.218
1.3520,-0.0183,-0.0083,-0.2218,0.223
1.3610,0.0046,-0.0177,-0.1709,0.172
1.3720,0.0241,-0.0287,-0.2169,0.220
1.3810,0.0913,-0.0876,-0.2786,0.306
1.3920,0.0750,-0.1478,-0.1214,0.205
1.4010,0.0387,-0.1555,0.0780,0.178
1.4120,0.0579,-0.1781,0.2075,0.280
1.4210,0.1245,-0.1835,0.1997,0.298
1.4340,0.1339,-0.1605,0.1048,0.234
1.4400,0.1292,-0.1240,0.0584,0.188
1.4530,0.1066,-0.1147,0.0079,0.157
1.4590,0.1121,-0.1316,-0.0843,0.192
1.4710,0.1417,-0.1606,-0.1013,0.237
1.4820,0.1984,-0.1861,-0.0640,0.279
1.4910,0.2253,-0.1772,-0.0880,0.300
1.5000,0.1234,-0.1018,-0.2222,0.274
1.5110,-0.0542,-0.0882,-0.1230,0.161
1.5200,-0.0596,-0.0792,-0.1278,0.162
1.5350,-0.0506,-0.1234,0.3028,0.331
1.5400,0.1549,-0.1746,0.3287,0.403
1.5530,0.1904,-0.1811,0.1618,0.309
1.5640,0.0573,-0.1558,0.0541,0.175
1.5730,-0.0175,-0.1344,-0.0121,0.136
1.5810,-0.0232,-0.0859,-0.0399,0.097
1.5930,0.0093,-0.0394,0.0469,0.062
1.6010,0.0908,-0.0626,0.0673,0.129
1.6120,0.0827,-0.0960,0.0286,0.130
1.6220,0.0458,-0.1269,-0.0700,0.152
1.6320,-0.0593,-0.0835,-0.1422,0.175
1.6440,-0.0992,-0.0316,-0.1293,0.166
1.6520,-0.0261,-0.0646,-0.0004,0.070
1.6600,0.0982,-0.1066,0.0729,0.162
1.6730,0.2346,-0.1343,0.0180,0.271
1.6830,0.2296,-0.1316,0.0162,0.265
1.6910,0.0894,-0.1659,0.0053,0.188
1.7030,0.0199,-0.1429,-0.0068,0.144
1.7120,-0.0053,-0.0669,-0.0542,0.086
1.7300,-0.0225,-0.0457,-0.1023,0.114
1.7360,-0.0031,-0.0825,-0.1094,0.137
1.7420,0.0085,-0.1325,-0.0793,0.155
1.7510,0.0900,-0.1760,-0.0817,0.214
1.7620,0.1068,-0.1481,-0.1191,0.218
1.7740,0.0194,-0.1155,-0.0272,0.120
1.7970,-0.0530,-0.0467,0.1542,0.170
1.7980,-0.1438,0.0236,0.3271,0.358
1.8010,-0.1779,-0.0158,0.2333,0.294
1.8120,0.0110,-0.1174,0.0448,0.126
1.8200,0.2007,-0.1963,-0.0731,0.290
1.8310,0.2490,-0.1889,-0.0181,0.313
1.8400,0.1745,-0.1033,0.2366,0.312
1.8520,0.0218,-0.0398,0.2869,0.290
1.8600,-0.0942,-0.0574,0.1825,0.213
1.8700,-0.0931,-0.0557,-0.0370,0.115
1.8810,-0.0356,-0.0664,-0.1923,0.206
1.8900,0.0306,-0.0301,-0.3949,0.397
1.9010,-0.0655,0.0324,-0.4203,0.427
1.9100,-0.1971,0.0732,-0.3395,0.399
1.9380,-0.2248,0.0698,-0.3013,0.382
1.9390,-0.0798,0.0733,-0.3460,0.363
1.9460,0.1098,0.0495,-0.4615,0.477
1.9500,0.1827,0.0019,-0.4896,0.523
1.9590,0.1356,-0.0200,-0.4265,0.448
1.9710,0.1179,-0.0532,-0.3373,0.361
1.9790,0.1135,-0.0523,-0.1742,0.214
1.9900,0.0929,-0.0368,0.0245,0.103
1.9990,0.0657,-0.0862,0.2113,0.237
2.0100,0.0929,-0.0486,0.2975,0.315
2.0220,0.1309,-0.0623,0.1683,0.222
2.0340,0.1360,-0.0749,0.0632,0.168
2.0390,0.1351,-0.0710,-0.0471,0.160
2.0520,0.0916,-0.0538,-0.0483,0.117
2.0600,0.0357,-0.0164,0.0348,0.053
2.0720,-0.0374,-0.0324,0.1088,0.120
2.0800,-0.0430,-0.0382,0.1141,0.128
2.0910,-0.0246,-0.0430,0.0489,0.070
2.1010,0.0623,-0.0828,-0.0120,0.104
2.1100,0.0895,-0.1181,-0.2062,0.254
2.1220,-0.0064,-0.1670,-0.4153,0.448
2.1350,-0.0269,-0.0604,-0.2973,0.305
2.1410,-0.0534,-0.0529,-0.1377,0.157
2.1520,-0.0048,-0.0529,-0.1562,0.165
2.1590,0.0026,-0.0462,-0.2326,0.237
2.1720,0.0007,-0.0842,-0.2416,0.256
2.1790,0.0432,-0.0451,-0.1825,0.193
2.1900,0.0315,-0.0253,-0.1596,0.165
2.2000,0.0375,-0.0202,-0.1610,0.167
2.2100,0.0076,-0.0248,-0.0195,0.032
2.2200,0.0477,-0.0756,-0.0663,0.111
2.2330,-0.0040,-0.0763,-0.0691,0.103
2.2390,-0.0644,-0.0216,-0.0099,0.069
2.2560,-0.0991,0.0444,0.0014,0.109
2.2620,-0.1487,0.0385,0.0198,0.155
2.2740,-0.1093,0.0287,0.0464,0.122
2.2790,-0.1305,0.0480,0.1252,0.187
2.2900,-0.1123,0.0699,0.1260,0.183
2.3020,-0.0145,-0.0095,-0.0074,0.019
2.3100,-0.0009,-0.0104,-0.1644,0.165
2.3230,-0.0660,-0.0096,-0.1761,0.188
2.3350,-0.1084,0.0018,-0.2205,0.246
2.3410,-0.1749,0.0525,-0.1602,0.243
2.3540,-0.3945,0.1606,0.0671,0.431
2.3600,-0.5784,0.2655,0.1278,0.649
2.3770,-0.7071,0.3064,-0.1710,0.789
2.3870,-0.5714,0.2358,-0.4320,0.754
2.3920,-0.1241,0.0553,-0.4951,0.513
2.4020,0.3742,-0.1690,-0.4196,0.587
2.4110,0.7432,-0.4716,-0.1569,0.894
2.4200,0.9933,-0.6997,0.1009,1.219
2.4300,1.0541,-0.7455,0.2417,1.314
2.4390,0.5984,-0.6335,0.3559,0.941
2.4520,0.0097,-0.3410,0.2430,0.419
2.4600,-0.4573,0.0178,0.0328,0.459
2.4720,-0.7731,0.2276,-0.2565,0.846
2.4790,-0.7261,0.3115,-0.3571,0.867
2.4900,-0.4226,0.2773,-0.2478,0.563
2.5020,0.2940,-0.0865,-0.3035,0.431
2.5110,0.8835,-0.4837,-0.3210,1.057
2.5200,1.0602,-0.5386,-0.3301,1.234
2.5300,0.5397,-0.3065,-0.2810,0.681
2.5430,-0.0300,-0.1082,-0.2387,0.264
2.5530,-0.3788,-0.2615,-0.1609,0.488
2.5620,-0.2316,-0.1576,0.2199,0.356
2.5710,0.0556,0.2410,0.5996,0.649
2.5810,-0.0816,0.5302,0.6842,0.869
2.5900,-0.4890,0.2767,0.1767,0.589
2.6390,-1.0499,-0.1058,-0.5793,1.204
2.6420,-0.9415,-0.2783,-0.7722,1.249
2.6430,-0.1127,-0.0369,-0.1661,0.204
2.6440,0.5916,0.1408,0.4077,0.732
2.6450,0.8176,-0.0852,0.4250,0.925
2.6520,0.6707,-0.4369,-0.0150,0.801
2.6600,0.5482,-0.6503,-0.3571,0.922
2.6710,0.6313,-0.6108,-0.2819,0.923
2.6800,0.7441,-0.6094,-0.1104,0.968
2.6910,0.7194,-0.6283,0.0071,0.955
2.7010,0.6284,-0.5230,0.0843,0.822
2.7100,0.5154,-0.3769,0.1592,0.658
2.7310,0.3819,-0.2247,0.2236,0.496
2.7390,0.1013,-0.1572,0.1900,0.267
2.7430,-0.1607,-0.0518,0.1156,0.205
2.7550,-0.2245,0.0632,-0.0796,0.246
2.7720,-0.1773,0.1889,-0.1719,0.311
2.7720,-0.1909,0.2554,-0.2385,0.398
2.8010,-0.2399,0.2592,-0.2418,0.428
2.8020,-0.3520,0.1905,-0.2380,0.466
2.8020,-0.3989,0.1817,-0.1256,0.456
2.8100,-0.3972,0.2228,0.0708,0.461
2.8210,-0.3547,0.2077,0.3010,0.509
2.8300,-0.3017,0.1291,0.4180,0.531
2.8390,-0.1644,0.0410,0.3780,0.414
2.8520,-0.0560,0.0091,0.3394,0.344
2.8590,-0.0970,0.0045,0.2726,0.289
2.8730,-0.0983,0.0016,0.2736,0.291
2.8800,-0.1549,0.1143,0.0838,0.210
2.8910,-0.1671,0.1217,-0.0966,0.228
2.9040,-0.1996,0.1842,-0.1442,0.308
2.9110,-0.1330,0.0442,-0.4270,0.449
2.9230,0.1311,-0.0682,-0.7430,0.758
2.9350,0.3385,-0.0477,-0.6426,0.728
2.9440,0.2853,-0.0738,-0.4137,0.508
2.9780,0.0389,-0.1865,-0.3183,0.371
2.9790,-0.0678,-0.1538,-0.2060,0.266
2.9800,-0.1077,-0.0696,-0.0303,0.132
2.9810,-0.1368,-0.0852,0.0200,0.162
2.9900,-0.1438,-0.1350,0.0195,0.198
3.0010,-0.0924,-0.0886,0.0088,0.128
3.0130,0.0146,0.0005,-0.0828,0.084
3.0240,0.0598,0.0434,-0.1516,0.169
3.0340,0.0504,0.0224,-0.1647,0.174
3.0490,0.0181,0.0001,-0.0699,0.072
3.0510,0.0017,-0.0187,0.0641,0.067
3.0590,0.0489,-0.0090,0.1249,0.134
3.0700,0.0762,-0.0260,0.0914,0.122
3.0790,0.0752,-0.0548,0.1224,0.154
3.0910,0.0655,-0.0740,0.1408,0.172
3.1000,-0.0024,-0.1124,0.0910,0.145
3.1170,0.0018,-0.0912,-0.0042,0.091
3.1250,0.0108,-0.0530,-0.0996,0.113
3.1530,-0.0098,-0.0703,-0.2088,0.221
3.1540,-0.0424,-0.0473,-0.2578,0.266
3.1540,-0.1030,-0.0560,-0.2530,0.279
3.1600,-0.2025,-0.0589,-0.2029,0.293
3.1740,-0.2450,-0.0533,-0.1640,0.300
3.1800,-0.1479,-0.0328,-0.1493,0.213
3.1950,-0.0571,-0.0272,-0.0927,0.112
3.2020,-0.0379,-0.0486,-0.0336,0.070
3.2100,-0.0750,-0.0277,-0.0246,0.084
3.2220,-0.0927,-0.0313,-0.1196,0.155
3.2300,-0.0709,-0.0427,-0.1818,0.200
3.2440,-0.0177,-0.0673,-0.1900,0.202
3.2510,0.0182,-0.0463,-0.1623,0.170
3.2590,0.0132,-0.0321,-0.1114,0.117
3.2720,-0.0054,-0.0117,-0.0610,0.062
3.2790,-0.0550,-0.0383,0.0165,0.069
3.2910,-0.0745,-0.0857,0.0998,0.151
3.3030,-0.0691,-0.1296,0.1951,0.244
3.3110,-0.0220,-0.1215,0.1366,0.184
3.3210,-0.0083,-0.1032,0.0010,0.103
3.3300,-0.0082,-0.0453,-0.1085,0.118
3.3400,-0.0166,0.0013,-0.2569,0.257
3.3520,0.0004,0.0263,-0.3201,0.321
3.3590,0.0267,0.0601,-0.2567,0.265
3.3710,0.0468,0.0385,-0.0554,0.082
3.3790,0.0413,0.0038,0.0814,0.091
3.3910,0.1433,-0.0136,0.1623,0.217
3.4010,0.2095,0.0068,0.1697,0.270
3.4110,0.1128,-0.0212,0.0920,0.147
3.4220,0.0605,-0.0375,-0.0209,0.074
3.4310,0.1088,-0.0433,-0.0342,0.122
3.4440,0.1623,-0.0615,-0.0838,0.193
3.4590,0.1802,-0.0444,-0.0457,0.191
3.4630,0.1289,-0.0249,-0.0244,0.133
3.4730,0.1089,-0.0185,0.0569,0.124
3.4790,0.0533,-0.0210,0.1685,0.178
3.4950,0.0200,-0.0310,0.2628,0.265
3.5030,0.0861,-0.0692,0.2796,0.301
3.5110,0.1295,-0.0924,0.3763,0.409
3.5290,0.0950,-0.0763,0.3615,0.382
3.5370,0.1137,-0.0980,0.1602,0.220
3.5440,0.1280,-0.0931,0.0298,0.161
3.5520,0.0913,-0.0720,-0.1720,0.208
3.5600,0.0632,-0.0290,-0.3304,0.338
3.5760,0.0173,-0.0356,-0.2844,0.287
3.5810,-0.0727,-0.0754,-0.2641,0.284
3.5900,-0.0895,-0.0814,-0.3188,0.341
3.5980,-0.0411,-0.0360,-0.2591,0.265
3.6100,-0.0279,0.0198,-0.1544,0.158
3.6210,-0.0749,0.0119,-0.0417,0.087
3.6300,-0.1324,-0.0192,0.1006,0.167
3.6430,-0.0723,-0.0107,0.1831,0.197
3.6560,-0.0057,0.0211,0.1713,0.173
3.6640,0.0042,0.0015,0.0810,0.081
3.6760,0.0085,-0.0484,-0.0469,0.068
3.6830,0.0293,-0.0790,-0.1335,0.158
3.7070,0.0379,-0.0635,-0.1516,0.169
3.7080,-0.0357,-0.0408,-0.0751,0.093
3.7120,-0.1036,-0.0426,0.0634,0.129
3.7200,-0.1523,0.0139,0.1368,0.205
3.7310,-0.0923,0.0667,0.1192,0.165
3.7430,-0.0212,0.0882,-0.0069,0.091
3.7640,-0.0136,0.0689,-0.0930,0.117
3.7740,-0.0150,0.0312,-0.0352,0.049
3.7760,0.0102,0.0087,0.0237,0.027
3.7950,0.0455,0.0054,0.0235,0.051
3.7950,0.1114,-0.0080,0.0063,0.112
3.8010,0.0885,0.0077,0.0751,0.116
3.8100,0.0273,0.0201,0.0718,0.079
3.8200,0.0008,0.0514,0.0744,0.090
3.8310,-0.0787,0.0533,0.1766,0.201
3.8420,-0.0982,0.0223,0.2527,0.272
3.8500,0.0379,0.0060,0.2947,0.297
3.8600,0.3454,0.0041,0.0560,0.350
3.8720,0.3221,-0.0456,-0.1495,0.358
3.8800,0.0002,-0.1613,-0.2354,0.285
3.8900,-0.0967,-0.1164,-0.2453,0.288
3.8990,-0.2611,0.0711,-0.1271,0.299
3.9120,-0.5454,0.2284,0.0084,0.591
3.9270,-0.7372,0.3458,0.0202,0.814
3.9310,-0.5482,0.3698,-0.1892,0.688
3.9490,-0.2366,0.2673,-0.4989,0.613
3.9540,0.0164,0.0926,-0.6846,0.691
3.9590,0.1986,-0.0591,-0.5972,0.632
3.9730,0.2117,-0.1368,-0.1952,0.319
3.9790,0.1428,-0.1947,0.1625,0.291
3.9900,0.0821,-0.2598,0.4607,0.535
3.9990,0.0996,-0.2535,0.7045,0.755
4.0110,0.1083,-0.2415,0.6811,0.731
4.0310,0.0690,-0.2149,0.5085,0.556
4.0330,0.0820,-0.1602,0.1798,0.254
4.0430,0.0627,-0.0282,-0.0526,0.087
4.0540,-0.0947,0.1033,-0.2096,0.252
4.0610,-0.1785,0.1246,-0.3662,0.426
4.0710,-0.0577,0.1417,-0.3293,0.363
4.0790,0.0035,0.1128,-0.1738,0.207
4.0910,0.0655,0.0871,0.0312,0.113
4.0990,0.1037,0.0981,0.1889,0.237
4.1100,0.0977,0.0787,0.3225,0.346
4.1210,0.0164,0.0370,0.4256,0.427
4.1300,0.0048,0.0096,0.4497,0.450
4.1410,0.0276,0.0367,0.3923,0.395
4.1510,0.0398,0.0461,0.1844,0.194
4.1600,0.0699,0.0411,0.0068,0.081
4.1740,0.0349,0.0139,-0.0640,0.074
4.1790,-0.0592,-0.0250,-0.1006,0.119
4.1910,-0.1037,-0.0310,-0.0839,0.137
4.1990,-0.1200,-0.0186,-0.0031,0.121
4.2110,-0.1932,-0.0336,0.0843,0.213
4.2210,-0.2183,-0.0277,0.1390,0.260
4.2300,-0.1556,0.0211,0.1028,0.188
4.2400,-0.0137,0.0270,0.0251,0.039
4.2500,0.0232,-0.0217,-0.0391,0.050
4.2600,0.0223,-0.0909,-0.0482,0.105
4.2730,0.0338,-0.0854,-0.0418,0.101
4.2800,0.0266,-0.0720,-0.0945,0.122
4.2920,0.0533,-0.0282,-0.0504,0.079
4.3030,-0.0223,-0.0100,-0.0869,0.090
4.3120,-0.0279,0.0379,-0.1191,0.128
4.3200,0.0274,0.0877,-0.1144,0.147
4.3300,0.0475,0.1232,-0.0236,0.134
4.3400,0.0974,0.1529,0.1156,0.215
4.3500,0.1630,0.1280,0.1038,0.232
4.3600,0.1168,0.0305,0.1441,0.188
4.3730,0.1109,-0.1231,0.1778,0.243
4.3800,0.0640,-0.1995,0.3258,0.387
4.3920,0.0346,-0.1780,0.4002,0.439
4.4010,0.0846,-0.1056,0.2430,0.278
4.4120,0.1333,-0.0491,0.0338,0.146
4.4230,0.1515,-0.0167,-0.1220,0.195
4.4350,0.1054,-0.0535,-0.1291,0.175
4.4430,0.0458,-0.0770,-0.0563,0.106
4.4500,-0.0106,-0.0636,-0.0513,0.082
4.4590,-0.0660,-0.0483,-0.0325,0.088
4.4720,-0.0675,-0.0260,-0.0382,0.082
4.4800,-0.0062,0.0101,0.0407,0.042
4.4900,0.0164,0.0157,0.1515,0.153
4.4990,-0.0366,0.0229,0.1952,0.200
4.5100,-0.0705,0.0199,0.1459,0.163
4.5310,-0.0587,0.0452,-0.0093,0.075
4.5420,-0.0262,0.0628,-0.1015,0.122
4.5430,-0.0014,0.0592,-0.1048,0.120
4.5510,-0.0400,0.0383,-0.0328,0.064
4.5610,-0.0417,0.0100,-0.0018,0.043
4.5720,-0.0185,-0.0174,0.0528,0.059
4.5790,-0.0169,-0.0301,0.0521,0.062
4.5910,-0.0192,-0.0177,0.0524,0.059
4.5990,0.0190,0.0215,0.0495,0.057
4.6110,-0.0048,-0.0010,0.0660,0.066
4.6230,-0.0709,0.0156,0.0853,0.112
4.6310,-0.0833,-0.0042,-0.0722,0.110
4.6450,-0.0549,-0.0258,-0.1023,0.119
4.6510,-0.0023,-0.0376,-0.0787,0.087
4.6620,0.0241,-0.0460,-0.0341,0.062
4.6740,0.0149,-0.0181,0.0338,0.041
4.6790,-0.0499,0.0159,0.0749,0.091
4.6900,-0.0696,0.0200,0.0727,0.103
4.7000,-0.0253,-0.0148,0.0661,0.072
4.7110,0.0004,-0.0760,0.0655,0.100
4.7210,0.0188,-0.0904,0.0949,0.132
4.7310,-0.0046,-0.0651,0.0717,0.097
4.7400,-0.0469,0.0113,-0.0027,0.048
4.7510,-0.1040,0.0655,-0.1007,0.159
4.7630,-0.1321,0.0859,-0.1468,0.215
4.7740,-0.0815,0.1152,-0.1545,0.209
4.7910,-0.0065,0.1196,-0.0690,0.138
4.7930,0.1534,0.0521,0.0589,0.172
4.8000,0.1877,0.0001,0.1520,0.242
4.8100,0.1522,-0.0382,0.2367,0.284
4.8230,0.1092,-0.0313,0.2714,0.294
4.8310,0.0605,-0.0079,0.2122,0.221
4.8400,0.0036,0.0185,0.0700,0.072
4.8520,-0.0075,0.0197,-0.0285,0.035
4.8590,0.0004,0.0431,0.0122,0.045
4.8710,0.0169,0.0248,0.0361,0.047
4.8800,0.0261,-0.0016,-0.0156,0.030
4.8910,-0.0027,-0.0065,-0.0300,0.031
4.9000,-0.0920,0.0049,0.0144,0.093
4.9120,-0.0995,0.0290,0.0685,0.124
4.9220,-0.0527,0.0508,0.0306,0.079
4.9330,-0.0829,0.0387,-0.0264,0.095
4.9440,-0.0576,0.0009,-0.0474,0.075
4.9500,0.0119,-0.0458,-0.0865,0.099
4.9680,0.0701,-0.1166,-0.1187,0.181
4.9750,0.1006,-0.1579,-0.1309,0.228
4.9800,0.0890,-0.1434,-0.0752,0.185
4.9900,0.0480,-0.0685,-0.0137,0.085
4.9990,0.0035,-0.0381,-0.0062,0.039
5.0100,-0.0014,-0.0191,-0.0511,0.055
5.0190,0.0365,0.0088,-0.1114,0.118
5.0390,0.0233,0.0436,-0.0758,0.091
5.0410,0.0080,0.0514,-0.0571,0.077
5.0500,-0.0167,0.0669,-0.0254,0.073
5.0610,-0.0531,0.0617,0.0036,0.081
5.0730,-0.0630,0.0343,0.0015,0.072
5.0800,-0.0405,-0.0118,0.0578,0.072
5.0910,0.0156,-0.0583,0.1233,0.137
5.0990,0.0355,-0.0575,0.1346,0.151
5.1100,0.0416,-0.0626,0.1054,0.129
5.1230,0.0040,-0.0917,0.0060,0.092
5.1300,-0.0205,-0.0564,-0.0557,0.082
5.1420,0.0538,-0.0033,-0.1149,0.127
5.1500,0.1034,0.0440,-0.0316,0.117
5.1610,0.1013,0.0264,0.0022,0.105
5.1760,0.0429,-0.0249,-0.0231,0.055
5.1800,0.0734,-0.0202,-0.0069,0.076
5.1930,0.0914,-0.0021,0.0595,0.109
5.2000,0.0555,-0.0093,0.0947,0.110
5.2110,0.1592,0.0037,0.1480,0.217
5.2220,0.1696,0.0327,0.1979,0.263
5.2300,0.0628,0.0292,0.1490,0.164
5.2460,-0.0535,0.0411,0.0720,0.099
5.2500,-0.0958,0.0494,-0.0820,0.135
5.2690,-0.0950,0.0729,-0.2758,0.301
5.2750,0.0097,0.0738,-0.5836,0.588
5.2800,-0.0131,-0.1161,-0.7343,0.744
5.2910,-0.1813,-0.1441,-0.2377,0.332
5.3000,-0.1510,0.0246,0.3983,0.427
5.3130,-0.0531,0.0737,0.2837,0.298
5.3220,-0.2445,0.0215,-0.1091,0.269
5.3320,-0.2277,0.1756,-0.4566,0.540
5.3400,-0.0858,0.2000,-0.5402,0.582
5.3500,0.1216,0.0277,-0.4112,0.430
5.3770,0.2909,0.0243,-0.0803,0.303
5.3780,0.2446,-0.0467,0.3319,0.415
5.3800,0.1118,-0.2022,0.4966,0.548
5.3910,0.0844,-0.1999,0.5367,0.579
5.4000,0.1177,-0.0952,0.4663,0.490
5.4120,0.0752,-0.0607,0.2965,0.312
5.4240,0.0501,-0.1514,0.0646,0.172
5.4310,0.1361,-0.1921,-0.2187,0.321
5.4400,0.2612,-0.1294,-0.3224,0.435
5.4510,0.1665,-0.0738,-0.3161,0.365
5.4600,-0.0814,0.0320,-0.2164,0.233
5.4850,-0.1825,0.1014,-0.1017,0.232
5.4850,-0.1816,0.1319,0.0054,0.225
5.4920,-0.1556,0.0810,0.0902,0.197
5.5000,-0.1388,0.0515,0.2515,0.292
5.5130,-0.0725,0.0473,0.2551,0.269
5.5250,0.0505,-0.0167,0.1962,0.203
5.5300,0.1426,-0.1003,0.0907,0.197
5.5410,0.2509,-0.1317,-0.1200,0.308
5.5500,0.3488,-0.1282,-0.2392,0.442
5.5620,0.3160,-0.1096,-0.2604,0.424
5.5720,0.1850,-0.0542,-0.0157,0.193
5.5810,0.1093,-0.0156,0.3239,0.342
5.5940,0.0633,-0.0304,0.5509,0.555
5.5990,-0.0698,-0.0668,0.6419,0.649
5.6140,-0.0997,-0.0700,0.4681,0.484
5.6290,0.0002,-0.0409,0.0543,0.068
5.6360,0.1006,-0.0288,-0.2404,0.262
5.6400,0.1510,-0.0486,-0.4517,0.479
5.6520,0.1493,-0.0939,-0.5153,0.545
5.6640,0.1542,-0.2760,-0.5183,0.607
5.6710,0.2659,-0.4008,-0.5446,0.727
5.6810,0.2996,-0.3475,-0.6840,0.824
5.6940,0.2751,-0.0696,-0.5648,0.632
5.7020,-0.2350,0.3390,-0.1832,0.451
5.7200,-0.8744,-0.2999,-0.0704,0.927
5.7330,-1.3140,-0.6290,-0.0585,1.458
5.7360,-0.4400,-0.0932,-0.2669,0.523
5.7470,0.0154,0.3096,0.1532,0.346
5.7500,-0.1747,0.0395,0.4192,0.456
5.7640,-0.3150,-0.0501,-0.3363,0.463
5.7750,-0.7720,0.5208,-0.9257,1.313
5.7890,-0.6471,0.2889,-1.5229,1.680
5.8030,-0.5831,0.3500,1.4316,1.585
5.8040,-0.5531,0.4175,0.6554,0.954
5.8110,-0.8139,0.2536,0.6787,1.090
5.8190,-0.7428,0.1628,1.3858,1.581
5.8310,-0.1649,0.0653,0.9296,0.946
5.8400,0.3989,-0.0787,0.6257,0.746
5.8500,0.7465,-0.0366,0.6017,0.959
5.8650,0.6513,0.0975,0.6550,0.929
5.8790,0.5536,-0.0745,0.3431,0.656
5.8810,0.5266,-0.2445,-0.0034,0.581
5.8930,0.5613,-0.1961,-0.1782,0.621
5.9030,0.6263,-0.0682,-0.3105,0.702
5.9100,0.5580,-0.0607,-0.5088,0.758
5.9200,0.3641,-0.1202,-0.7198,0.816
5.9310,0.2623,-0.1677,-0.8867,0.940
5.9890,0.3078,-0.1230,-0.8607,0.922
5.9900,0.3548,-0.0355,-0.5819,0.682
5.9910,0.3933,-0.0558,-0.4335,0.588
5.9910,0.3599,-0.1375,-0.1447,0.412
5.9920,0.2647,-0.1514,0.2108,0.371
5.9960,0.2582,-0.1628,0.3392,0.456
6.0000,0.3207,-0.1847,0.2928,0.472
6.0190,0.2647,-0.1704,0.2447,0.399
6.0190,0.1623,-0.1199,0.1583,0.256
6.0300,0.1083,-0.0740,0.0648,0.146
6.0420,-0.0056,-0.0483,-0.0136,0.050
6.0500,-0.1132,-0.0187,-0.0902,0.146
6.0640,-0.1865,-0.0381,-0.1569,0.247
6.0700,-0.2110,-0.0535,-0.0529,0.224
6.0790,-0.2289,-0.0023,0.1102,0.254
6.0950,-0.3141,-0.0037,0.0788,0.324
6.0990,-0.7443,-0.1100,-0.0939,0.758
6.1130,-0.9684,0.0339,-0.3354,1.025
6.1190,-0.5832,0.2519,-0.2934,0.700
6.1300,-0.2896,0.1961,-0.1972,0.401
6.1470,-0.0702,0.0406,-0.0427,0.092
6.1510,-0.1551,-0.0477,0.1204,0.202
6.1740,-0.2964,-0.0364,0.2585,0.395
6.1740,-0.2689,0.0739,0.2776,0.394
6.1800,-0.1434,0.1820,0.1796,0.293
6.1910,-0.0409,0.1638,-0.0044,0.169
6.1990,0.0208,0.0875,-0.2455,0.261
6.2120,0.0666,0.0460,-0.3154,0.326
6.2240,0.0887,0.0611,-0.1729,0.204
6.2350,0.0401,0.0821,0.0355,0.098
6.2390,-0.0355,0.0632,0.1608,0.176
6.2500,-0.1168,-0.0021,0.2178,0.247
6.2690,-0.1054,-0.0322,0.1712,0.204
6.2700,-0.0025,-0.0354,0.0127,0.038
6.2790,0.0418,-0.0293,0.0034,0.051
6.2900,0.0349,-0.0171,0.0649,0.076
6.2990,0.0278,-0.0201,0.0654,0.074
6.3280,-0.0045,-0.0896,-0.0730,0.116
6.3300,0.0702,-0.1303,-0.2027,0.251
6.3300,0.1675,-0.1547,-0.2903,0.369
6.3400,0.1656,-0.1833,-0.2380,0.343
6.3500,0.1127,-0.1762,-0.0523,0.216
6.3620,0.0401,-0.1412,0.1705,0.225
6.3700,-0.0163,-0.1356,0.2886,0.319
6.3850,-0.0432,-0.1186,0.2608,0.290
6.3920,0.0166,-0.1184,0.1646,0.203
6.3990,0.0755,-0.1046,-0.0153,0.130
6.4110,0.0628,-0.0706,-0.2338,0.252
6.4190,0.0403,-0.0680,-0.3678,0.376
6.4320,0.0639,-0.0270,-0.3223,0.330
6.4410,0.0430,0.0146,-0.2511,0.255
6.4520,-0.0053,0.0124,-0.1282,0.129
6.4630,-0.0332,0.0022,0.0068,0.034
6.4700,-0.0168,-0.0216,0.0993,0.103
6.4980,0.0333,-0.0161,0.1928,0.196
6.4990,0.0561,-0.0483,0.2362,0.248
6.4990,0.0328,-0.0838,0.2044,0.223
6.5120,0.0309,-0.0854,0.2048,0.224
6.5200,0.0383,-0.0806,-0.0905,0.127
6.5430,0.0522,-0.0780,-0.3023,0.317
6.5470,0.0519,-0.0614,-0.3702,0.379
6.5520,0.0581,-0.0403,-0.3179,0.326
6.5750,0.0211,-0.0403,-0.1629,0.169
6.5760,0.0460,-0.0564,0.0202,0.076
6.5810,0.0547,-0.0714,0.2259,0.243
6.5970,0.0821,-0.0693,0.3244,0.342
6.5990,0.0813,-0.0386,0.2948,0.308
6.6100,0.0595,-0.0076,0.1881,0.197
6.6190,0.0218,0.0191,0.0671,0.073
6.6310,-0.0262,0.0200,-0.0133,0.036
6.6410,-0.0280,0.0173,-0.0125,0.035
6.6500,0.0044,-0.0136,-0.0100,0.017
6.6740,-0.0093,-0.0442,-0.0531,0.070
6.6770,-0.0356,-0.0724,-0.0711,0.108
6.6800,-0.0380,-0.0418,-0.1108,0.124
6.6950,0.0031,-0.0119,-0.1088,0.110
6.7120,0.0007,-0.0274,-0.1025,0.106
6.7140,0.0303,-0.0420,-0.0607,0.080
6.7190,0.0582,-0.0381,-0.0238,0.074
6.7300,0.0345,-0.0349,0.0140,0.051
6.7410,-0.0036,-0.0330,0.0687,0.076
6.7500,-0.0139,-0.0521,0.1320,0.143
6.7670,0.0003,-0.0985,0.0460,0.109
6.7700,0.0651,-0.0508,-0.0932,0.125
6.7800,0.1095,0.0179,-0.2151,0.242
6.7920,0.0925,0.0422,-0.2384,0.259
6.8000,0.0215,0.0440,-0.1935,0.200
6.8110,-0.0478,-0.0348,-0.1509,0.162
6.8200,-0.0665,-0.0823,-0.0813,0.133
6.8310,-0.0553,-0.1180,-0.0479,0.139
6.8440,-0.0462,-0.1234,-0.0696,0.149
6.8500,-0.0178,-0.0548,-0.1332,0.145
6.8670,0.0528,-0.0449,-0.2646,0.274
6.8700,0.0567,-0.0373,-0.3333,0.340
6.8800,0.0675,-0.0097,-0.3636,0.370
6.8940,0.0656,0.0243,-0.2658,0.275
6.9000,0.0357,0.0156,-0.1422,0.147
6.9150,-0.0017,0.0006,0.0141,0.014
6.9210,0.0467,-0.0108,-0.0432,0.064
6.9310,0.0391,0.0307,-0.0982,0.110
6.9520,-0.0546,0.0410,-0.1111,0.130
6.9580,-0.1161,0.0368,-0.0821,0.147
6.9610,-0.2040,0.0389,-0.0919,0.227
6.9720,-0.0875,0.0554,-0.4114,0.424
6.9810,0.1707,0.0323,-0.5453,0.572
6.9930,0.2102,-0.0603,-0.4184,0.472
7.0010,0.1533,-0.1384,-0.0167,0.207
7.0120,0.1041,-0.1759,0.9771,0.998
7.0200,0.0837,-0.2202,1.2949,1.316
7.0320,0.1053,-0.0926,0.8453,0.857
7.0450,0.1399,0.0059,0.3759,0.401
7.0510,-0.0122,0.0041,0.2358,0.236
7.0850,-0.1037,-0.0428,0.2694,0.292
7.0910,-0.1951,-0.0321,0.1995,0.281
7.0930,-0.2650,0.0555,0.0607,0.277
7.0950,-0.4311,0.1111,-0.1635,0.474
7.1010,-0.4246,0.1114,-0.2453,0.503
7.1130,-0.3011,0.1492,-0.4055,0.527
7.1200,-0.2471,0.1749,-0.3305,0.448
7.1340,-0.1783,0.1242,-0.1628,0.271
7.1430,-0.1980,0.0940,-0.0544,0.226
7.1520,-0.2360,0.1050,0.0262,0.260
7.1620,-0.2466,0.1654,0.2137,0.366
7.1720,-0.2461,0.2020,0.1982,0.375
7.1820,-0.1931,0.2607,0.1254,0.348
7.2180,-0.0809,0.2094,0.2481,0.335
7.2260,0.0737,0.0862,0.4152,0.430
7.2290,0.1626,-0.0606,0.4182,0.453
7.2320,0.1060,-0.1066,0.3356,0.368
7.2330,-0.0337,-0.1028,0.3862,0.401
7.2420,0.0708,-0.1506,-0.4569,0.486
7.2530,0.2587,-0.0341,-0.6999,0.747
7.2640,0.3437,0.0643,-0.5805,0.678
7.2720,0.3698,0.0058,-0.7095,0.800
7.2820,0.1043,-0.2106,-0.9445,0.973
7.2930,-0.0563,-0.2556,-0.8024,0.844
7.3010,0.2171,-0.2148,-0.8934,0.944
7.3120,0.8160,-0.5017,-1.7505,1.995
7.3320,0.7651,-0.1251,-1.1123,1.356
7.3370,0.5456,-0.2159,-0.6015,0.840
7.3400,0.3221,-0.2676,0.1201,0.436
7.3650,0.1388,-0.0220,0.5989,0.615
7.3650,-0.0022,0.3961,0.7188,0.821
7.3720,-0.1818,0.5722,0.7129,0.932
7.3830,-0.8629,0.4814,1.3083,1.640
7.4160,-1.7142,0.3757,1.5476,2.340
7.4170,-2.3844,0.3703,1.7902,3.005
7.4180,-2.3860,0.6000,1.7161,3.000
7.4230,-1.7300,0.6885,1.3347,2.291
7.4460,-0.8073,0.5942,1.1268,1.508
7.4520,1.2063,-0.1471,0.3054,1.253
7.4530,2.8049,-1.2156,-2.1971,3.765
7.4600,2.4624,-1.5542,-2.6865,3.962
7.4700,1.6662,-1.7810,0.4706,2.484
7.4810,1.8320,-1.0254,-1.3105,2.475
7.4900,1.0696,-0.2280,-3.4668,3.635
7.4990,0.0839,0.5280,-4.8116,4.841
7.5130,-0.1438,1.9291,-4.4604,4.862
7.5190,-1.7855,0.1874,-2.3760,2.978
7.5300,-2.3240,-0.3411,-1.6060,2.845
7.5400,-1.2375,0.0837,-0.9181,1.543
7.5520,0.3566,0.4773,0.5898,0.838
7.5610,1.1319,0.3608,2.6458,2.900
7.5710,1.0674,-0.0239,4.6435,4.765
7.5800,0.3559,-0.6973,5.0001,5.061
7.5900,-0.9553,-1.8257,3.9283,4.436
7.6010,-1.0492,-0.7125,3.8377,4.042
7.6110,-0.6513,0.6025,3.4691,3.581
7.6200,-0.4392,0.7161,2.8019,2.925
7.6300,-0.3737,0.1235,1.6107,1.658
7.6400,0.0051,-0.4822,0.6933,0.845
7.6530,1.0133,-1.3491,-0.5770,1.783
7.6710,1.3068,-1.4336,-2.2522,2.972
7.6740,1.1041,-0.1276,-4.3120,4.453
7.6820,0.2908,-0.3357,-4.4016,4.424
7.6910,-0.2702,-0.2703,-3.9060,3.925
7.6990,-1.0397,-0.3606,-3.4554,3.626
7.7120,-1.3553,-0.5545,-2.0736,2.539
7.7200,-0.8787,-0.5619,-0.8364,1.337
7.7320,-0.0771,-0.3574,0.7209,0.808
7.7400,0.8937,0.0426,2.1616,2.339
7.7510,-1.2325,-1.6118,4.8532,5.260
7.7820,-4.4790,-3.7670,5.8205,8.254
7.7870,-3.2810,-2.5492,2.2394,4.720
7.8070,-2.0322,-0.8810,-0.0015,2.215
7.8100,-1.8653,-0.8409,-0.0028,2.046
7.8130,-0.8654,0.1287,-0.6863,1.112
7.8140,0.7020,0.7016,-1.0814,1.468
7.8200,0.8205,0.6906,-1.6887,2.000
7.8310,0.7272,0.5711,-2.2696,2.451
7.8390,0.4351,0.2652,-2.5382,2.589
7.8510,0.0040,-0.1615,-2.4686,2.474
7.8610,-0.7385,-0.6026,-2.0644,2.274
7.8710,-1.3822,-0.9244,-2.1274,2.700
7.8860,-1.7450,-1.0460,-2.1399,2.953
7.8900,-1.5527,-0.7808,-1.4198,2.244
7.9000,-1.4114,-0.0248,0.9217,1.686
7.9150,-0.2623,-0.0441,0.8235,0.865
7.9190,0.1124,-0.2699,-1.1240,1.161
7.9310,-1.1201,-0.6308,-2.8984,3.171
7.9390,-0.6629,-0.5017,-3.6440,3.738
7.9530,3.4133,1.3357,0.6608,3.724
7.9620,9.0509,4.5977,5.0449,11.336
7.9710,8.3568,4.9490,1.6814,9.857
7.9800,2.4780,1.6510,-2.2773,3.749
7.9900,-2.3339,-1.9062,-4.5982,5.498
8.0000,-4.8241,-3.9147,-6.2980,8.847
8.0110,-4.6086,-3.5163,-6.0154,8.354
8.0200,-3.3276,-1.8451,-4.1029,5.596
8.0330,-1.0920,-0.1420,-2.2553,2.510
8.0390,0.9964,0.6659,-1.7970,2.160
8.0530,2.7013,1.1485,-1.2353,3.185
8.0640,2.4691,0.0222,-2.2794,3.360
8.0710,1.3193,-1.1567,-2.3015,2.894
8.0800,-0.0549,-0.9656,0.4172,1.053
8.0920,-3.1143,0.2807,2.6021,4.068
8.1010,-4.6746,0.1959,1.4344,4.894
8.1140,-5.1836,-0.3926,1.4269,5.391
8.1200,-4.8718,-0.8300,0.9118,5.025
8.1310,-3.2766,-0.9609,-0.1323,3.417
8.1400,-1.9372,-1.0594,-1.6090,2.732
8.1530,-0.3423,-0.9737,-3.1802,3.344
8.1730,-0.1081,-1.1677,-3.6725,3.855
8.1770,-1.3564,-1.6857,-4.2149,4.738
8.1810,-1.4462,-1.6450,-3.9278,4.497
8.1930,-1.2365,-1.7957,-4.9140,5.376
8.1990,-0.0603,-2.3698,-4.2298,4.849
8.2110,2.3980,-3.1765,-3.8495,5.537
8.2200,3.4857,-3.3473,-4.0288,6.292
8.2310,3.6923,-3.3374,-3.8439,6.289
8.2410,2.9528,-3.1933,-2.3892,4.962
8.2530,3.5789,-3.4004,-2.4141,5.495
8.2770,3.6289,-4.2788,-2.9898,6.357
8.2780,4.2462,-4.7085,-3.6064,7.294
8.2810,5.3459,-5.0095,-4.3212,8.506
8.2910,6.0897,-5.4446,-4.5691,9.360
8.3020,6.2642,-5.8350,-4.3841,9.618
8.3170,5.6929,-5.9812,-4.2842,9.303
8.3220,3.8929,-6.3465,-3.2577,8.127
8.3350,1.8906,-6.4420,-2.1467,7.049
8.3450,1.0614,-6.3547,-1.4120,6.596
8.3530,0.0957,-6.4534,-0.4877,6.473
8.3640,-0.2305,-6.3698,-0.1235,6.375
8.3720,0.1944,-6.3655,-0.1783,6.371
8.3960,0.6639,-6.4713,-0.0816,6.506
8.3970,0.3182,-6.3830,0.1044,6.392
8.4000,-2.1095,-6.2001,0.4865,6.567
8.4130,-4.5321,-5.9598,1.4487,7.626
8.4200,-7.1321,-5.8096,2.6206,9.565
8.4310,-7.5037,-5.3992,3.5731,9.911
8.4390,-6.3041,-4.7344,3.7031,8.710
8.4540,-5.7370,-4.1138,2.7683,7.583
8.4630,-5.8506,-3.4348,1.5899,6.968
8.4810,-6.0419,-2.8683,0.6977,6.725
8.4820,-6.3530,-2.3755,-0.4228,6.796
8.4900,-6.5803,-2.0465,-0.7418,6.931
8.5000,-6.4637,-1.8776,-0.2591,6.736
8.5130,-6.6718,-1.7752,0.6429,6.934
8.5210,-6.8564,-1.5077,1.4206,7.163
8.5320,-6.5732,-1.0411,1.8548,6.909
8.5400,-6.3924,-0.5446,1.6922,6.635
8.5510,-5.9741,-0.1348,1.2119,6.097
8.5710,-5.4578,0.0621,0.5753,5.488
8.5780,-5.7718,0.1079,0.3861,5.786
8.5960,-6.1122,0.1845,0.7657,6.163
8.5970,-6.4007,0.3617,1.2590,6.533
8.6010,-7.0916,0.5163,1.2347,7.217
8.6140,-7.2963,0.6938,1.4391,7.469
8.6210,-7.7457,0.8964,0.0011,7.797
8.6300,-7.6548,1.5039,-2.4921,8.190
8.6400,-7.5780,2.5753,-7.8527,11.213
8.6530,-7.7519,3.8227,-13.9297,16.393
8.6600,-6.8822,4.2662,-11.1187,13.755
8.6950,-5.9730,3.9790,-6.3985,9.615
8.6980,-5.6144,2.2008,-3.0260,6.747
8.6990,-4.9629,1.0171,0.8090,5.130
8.7030,-5.3895,-0.2053,1.8565,5.704
8.7170,-4.7262,-0.6067,1.4943,4.994
8.7210,-3.8333,-0.1582,1.2243,4.027
8.7320,-2.6351,0.6757,0.3092,2.738
8.7400,-2.0157,1.1513,-1.1478,2.590
8.7530,-1.4378,1.1053,-1.5148,2.363
8.7600,-1.6379,0.6788,-0.9919,2.032
8.7710,-1.9648,-0.0996,-0.0212,1.967
8.7820,-1.4952,-0.7223,0.4580,1.723
8.7910,3.9763,-0.0282,0.0553,3.977
8.7990,2.6715,-0.8612,0.5355,2.858
8.8150,0.4522,-1.6264,1.2221,2.084
8.8220,-1.1445,-1.3236,1.3718,2.223
8.8320,-4.3604,-1.4880,2.4456,5.216
8.8400,-1.0579,-0.5519,1.8159,2.173
8.8510,2.1192,0.5301,0.2164,2.195
8.8610,1.5619,0.3341,-0.7947,1.784
8.8720,-0.0521,-0.2895,-0.1840,0.347
8.8810,0.0191,-0.3992,-0.1468,0.426
8.8990,0.3538,0.8650,-0.2991,0.981
8.9010,1.4331,1.6918,-1.8389,2.881
8.9130,2.4888,1.8474,0.6090,3.159
8.9200,2.5672,1.6575,1.5120,3.409
8.9390,2.7720,1.2652,0.4165,3.075
8.9460,4.5027,0.9359,-0.7925,4.667
8.9510,5.5459,1.1472,-0.1350,5.665
8.9630,5.2480,0.9000,0.8282,5.389
8.9710,3.8564,0.6446,1.2286,4.098
8.9830,2.7117,0.4378,0.6191,2.816
9.0090,1.5845,0.6513,-0.8322,1.905
9.0100,1.2326,1.3872,-2.0448,2.761
9.0100,0.0899,2.0324,-2.0319,2.875
9.0210,1.4861,2.8822,-0.7219,3.322
9.0320,1.8772,2.2769,0.4405,2.984
9.0410,1.3837,0.9170,0.6852,1.796
9.0580,1.1572,0.5875,0.7005,1.475
9.0650,-0.0869,-0.7862,2.3809,2.509
9.0830,-1.0394,-1.1767,3.4666,3.806
9.0840,-0.7126,-0.8712,0.4339,1.206
9.0920,0.7908,1.5099,-0.5790,1.800
9.1010,1.3085,1.5396,-2.1868,2.977
9.1130,0.9538,0.5083,-1.1883,1.606
9.1200,-1.0993,-0.1595,-1.4050,1.791
9.1350,1.7597,3.3531,0.2907,3.798
9.1420,-2.7100,1.8717,6.2611,7.074
9.1540,-5.2390,0.4152,1.2796,5.409
9.1660,-5.6397,-1.1003,-2.2872,6.185
9.1700,-2.4862,-0.4280,-0.9232,2.686
9.1820,-0.1683,0.1190,-0.0015,0.206
9.1920,1.9214,-1.0358,-0.5793,2.258
9.2050,2.1823,-1.3438,-0.2744,2.577
9.2120,1.3698,-1.3046,0.5143,1.960
9.2200,0.0438,1.9731,-6.2297,6.535
9.2320,1.3761,3.2110,-1.4091,3.767
9.2420,2.9857,0.4408,5.7925,6.532
9.2550,2.3019,-1.1299,4.5806,5.250
9.2620,1.7569,-1.8747,1.6261,3.041
9.2740,1.3310,-2.0796,-0.0983,2.471
9.2950,0.9989,-1.7344,0.7924,2.153
9.2960,0.6981,-1.5938,1.5229,2.312
9.3000,1.2758,-1.0303,0.5877,1.742
9.3100,2.3994,-1.5783,-0.0479,2.872
9.3190,2.8593,-2.1068,-0.0724,3.552
9.3310,2.0719,-2.4426,-0.3868,3.226
9.3400,1.0137,-2.0274,-0.2456,2.280
9.3520,0.5577,-1.4401,-0.0258,1.545
9.3610,0.4311,-1.3553,-0.7466,1.606
9.3710,0.4701,-0.8719,-0.8911,1.332
9.3810,1.8390,-1.3196,2.2748,3.209
9.3910,2.0641,-0.8901,0.9114,2.426
9.4010,3.3579,-0.4337,0.0949,3.387
9.4120,4.3119,-0.0329,-0.6534,4.361
9.4200,2.6100,-0.2239,-0.7385,2.722
9.4320,-3.4523,1.7678,0.2845,3.889
9.4400,-4.6675,1.6868,0.2354,4.969
9.4520,-4.7840,0.7431,-0.9279,4.930
9.4600,-4.4526,0.1734,-1.8929,4.841
9.4780,-3.7526,-0.4947,-2.1654,4.361
9.4920,-0.5420,-1.1398,-0.8853,1.542
9.4950,0.4296,-1.1765,0.3853,1.310
9.5130,2.9397,-0.8268,2.9077,4.217
9.5190,4.5191,-0.8950,3.5254,5.801
9.5220,1.9853,-0.2920,0.1350,2.011
9.5310,1.9305,-0.2375,0.1222,1.949
9.5430,-0.8930,1.2142,-0.9910,1.804
9.5540,-1.0295,1.8007,0.0795,2.076
9.5610,-1.3814,1.9295,1.4303,2.771
9.5720,-0.4917,1.3877,0.6010,1.590
9.5950,-0.1611,1.3474,0.5059,1.448
9.5960,-0.2283,1.6948,0.9770,1.969
9.6000,-0.5022,2.0677,1.7279,2.741
9.6100,0.0371,2.1951,1.8881,2.896
9.6200,1.0373,1.8441,2.0746,2.963
9.6350,1.4981,1.1640,1.9012,2.686
9.6400,1.2170,0.5350,2.2244,2.591
9.6520,0.1400,-0.7228,2.4963,2.603
9.6670,0.0019,-1.4010,1.9113,2.370
9.6730,0.5202,-0.7676,1.4864,1.752
9.6810,2.1046,0.4102,1.3552,2.537
9.6930,3.6483,1.2600,0.7212,3.927
9.7000,5.0362,0.8624,-1.0461,5.215
9.7110,5.8509,0.5755,-1.6459,6.105
9.7200,4.6111,0.7807,-3.1152,5.619
9.7310,3.8395,1.1659,-2.0093,4.488
9.7390,2.3678,0.5279,-0.6456,2.510
9.7570,1.6389,0.3033,-0.4667,1.731
9.7600,1.0515,0.8428,-0.4045,1.407
9.7730,0.2973,1.5340,-0.5462,1.655
9.8010,-0.7896,1.5802,-0.1287,1.771
9.8020,-1.4712,1.6632,0.6585,2.316
9.8020,-2.1829,1.5360,2.4245,3.606
9.8110,-2.9535,1.4683,3.9618,5.155
9.8200,-3.2048,1.8624,3.1878,4.889
9.8300,-3.0114,2.2688,3.1294,4.900
9.8400,-2.4537,1.9220,3.2075,4.472
9.8510,-1.6054,1.0554,2.7416,3.348
9.8600,-0.3677,-0.6970,2.8451,2.952
9.8920,4.6658,-5.1641,2.2240,7.306
9.8930,12.0143,-12.2002,1.8908,17.227
9.8940,15.9709,-14.8800,1.2528,21.864
9.9030,8.8139,-10.4726,0.4321,13.695
9.9170,1.9577,-5.0684,-0.1326,5.435
9.9250,-0.7464,-1.6265,-0.8230,1.970
9.9340,-4.4292,-1.4991,-1.7566,4.995
9.9430,-11.5102,-9.0120,-3.4168,15.013
9.9530,2.9675,-3.1845,-1.8675,4.737
9.9620,12.3498,1.1719,-0.1548,12.406
9.9730,8.3345,3.8333,-1.1713,9.248
10.0000,2.6115,3.0373,-2.3161,4.627
10.0080,1.7589,1.6253,-0.8376,2.537
10.0170,1.1924,0.0726,-0.9564,1.530
10.0180,0.6326,-0.8126,-1.2258,1.601
10.0200,0.1660,-0.6924,-0.4989,0.869
10.0330,0.0522,-0.4640,0.5706,0.737
10.0410,-0.1030,-0.1413,1.1739,1.187
10.0540,-0.2318,-0.0142,1.1795,1.202
10.0600,-0.0171,0.2886,1.6707,1.696
10.0700,-0.6244,0.1089,2.0193,2.116
10.0820,-1.0946,-0.5153,1.7569,2.133
10.0900,-1.0760,-0.7179,1.1906,1.758
10.1000,-0.7328,-0.1489,0.2634,0.793
10.1100,-0.8269,0.4737,-0.6701,1.165
10.1210,-1.1826,0.6096,-1.7054,2.163
10.1310,-0.7227,0.2837,-1.9246,2.075
10.1420,-0.0289,-0.2126,-0.9766,1.000
10.1500,0.4083,-0.4134,0.0772,0.586
10.1590,1.0268,-0.4090,0.8860,1.417
10.1700,1.2120,-0.1315,1.0510,1.610
10.1860,1.2983,0.2943,0.7074,1.508
10.1910,1.5649,0.6155,0.2010,1.694
10.2000,1.8566,0.4237,-0.4445,1.956
10.2110,1.9322,0.3733,-0.6863,2.084
10.2200,1.9112,0.3990,-0.6891,2.070
10.2350,1.5390,0.3547,-0.9036,1.820
10.2410,1.3148,0.3747,-1.2461,1.850
10.2520,1.0639,0.4962,-0.7820,1.411
10.2600,0.3404,0.2478,0.5775,0.715
10.2710,0.0572,0.0256,1.6198,1.621
10.2860,-0.1660,-0.3055,1.9327,1.964
10.2900,-0.3386,-0.2211,1.5094,1.563
10.3000,0.1414,0.0852,1.1650,1.177
10.3110,0.0445,0.1693,1.0004,1.016
10.3200,0.3563,0.1318,0.9806,1.052
10.3330,0.7050,0.2381,0.9134,1.178
10.3400,0.8608,0.2955,0.5910,1.085
10.3540,0.7986,0.2859,0.0525,0.850
10.3610,0.7228,0.2750,-0.3995,0.870
10.3760,0.6264,0.2243,-0.6640,0.940
10.3810,0.5647,0.1424,-0.5852,0.826
10.3910,0.5044,0.0104,-0.2705,0.572
10.4000,0.4031,-0.0542,-0.0744,0.414
10.4140,0.3281,-0.0133,0.0170,0.329
10.4200,0.2573,0.0294,0.0915,0.275
10.4330,0.2085,0.0818,0.1756,0.285
10.4420,0.2510,0.0145,0.1609,0.298
10.4520,0.1751,0.0369,-0.6998,0.722
10.4600,-0.2600,0.0738,-0.8881,0.928
10.4730,-0.4025,0.0196,-0.9375,1.020
10.4960,-0.5046,-0.1914,-0.6731,0.863
10.5000,-1.1539,-0.3089,0.0923,1.198
10.5020,-1.1797,-0.3319,0.7451,1.434
10.5110,-0.8226,-0.1922,1.3331,1.578
10.5210,-0.4921,-0.0014,1.6438,1.716
10.5330,-0.1824,0.2108,1.4981,1.524
10.5400,0.1285,0.3650,1.0938,1.160
10.5550,0.4973,0.4499,0.6132,0.909
10.5600,0.7836,0.4472,0.3397,0.964
10.5720,1.1961,0.4345,0.3257,1.314
10.5870,1.5090,0.2882,0.5117,1.619
10.5920,1.4832,0.1962,0.5119,1.581
10.6210,1.1440,0.3033,-0.0324,1.184
10.6220,0.7757,0.4229,-0.8622,1.234
10.6260,0.0265,0.6115,-1.2080,1.354
10.6350,-0.7734,0.3128,-1.0197,1.317
10.6410,-1.3011,-0.1966,-0.3413,1.359
10.6510,-1.5476,-0.6253,0.2414,1.687
10.6600,-1.5127,-0.6594,0.7422,1.809
10.6750,-1.0145,-0.3585,1.2235,1.629
10.6870,-0.5585,0.0458,1.5423,1.641
10.6910,-0.2694,0.2219,1.4120,1.454
10.7040,0.1625,-0.0688,0.6335,0.658
10.7140,0.3614,-0.0769,0.1613,0.403
10.7250,0.9534,0.1052,0.2917,1.003
10.7380,1.4991,0.3136,0.4491,1.596
10.7390,1.6177,0.2464,0.2543,1.656
10.7560,1.3573,0.0741,-0.3105,1.394
10.7600,0.9899,0.3472,-0.8734,1.365
10.7750,1.1121,0.7018,-0.6103,1.450
10.7880,1.5747,0.6070,0.0502,1.688
10.8290,1.8353,0.5680,0.3635,1.955
10.8390,2.1657,0.7511,0.0537,2.293
10.8420,2.1342,0.7489,0.0522,2.262
10.8440,1.3299,0.1948,-0.3047,1.378
10.8510,3.6487,-1.2120,-0.1057,3.846
10.8540,-0.3188,0.4346,-0.8228,0.984
10.8570,-3.2839,1.8242,0.5680,3.799
10.8600,-1.7160,-0.2852,2.5639,3.098
10.8720,-2.8564,-2.0784,2.1651,4.143
10.8800,-2.8043,-1.8798,1.4884,3.690
10.8900,-3.2746,-0.3362,0.3137,3.307
10.9020,-1.6063,-0.0968,0.5262,1.693
10.9100,-3.1103,-0.6391,0.2890,3.188
10.9270,-0.9935,-0.4743,0.1327,1.109
10.9300,0.1687,-0.3964,-0.2054,0.477
10.9400,2.5792,-0.0447,-0.9639,2.754
10.9530,1.9242,1.5336,-2.8558,3.770
10.9590,1.6979,1.5810,-1.3809,2.700
10.9720,0.6830,0.4281,1.6830,1.866
10.9820,-1.4579,-0.0010,1.2479,1.919
11.0010,-1.7380,-1.1701,0.7918,2.240
11.0020,-1.2846,-1.4547,0.5504,2.017
11.0100,-0.6490,-0.9441,0.0486,1.147
11.0210,0.2895,-0.5399,-0.1819,0.639
11.0340,0.8989,-0.3144,-0.2366,0.981
11.0390,0.9406,-0.2196,-0.6045,1.139
11.0530,1.0382,-0.0977,-0.5173,1.164
11.0600,0.4759,-0.1280,0.4668,0.679
11.0720,0.5991,0.0201,1.1485,1.295
11.0810,0.2161,0.2099,0.2520,0.393
11.0900,0.7544,0.2087,-0.4651,0.911
11.1000,1.2936,0.0739,-0.8606,1.555
11.1100,1.3917,0.1483,-0.8636,1.645
11.1200,1.3958,0.1175,-0.7362,1.582
11.1300,1.5775,0.0955,-0.6076,1.693
11.1390,1.5293,0.4863,0.1583,1.613
11.1520,1.5354,0.7685,0.0641,1.718
11.1590,1.2711,0.4904,0.0600,1.364
11.1700,0.8598,0.3118,-0.4127,1.003
11.1790,0.6122,0.3461,-0.7066,0.997
11.1950,1.2275,0.5635,-0.6760,1.510
11.2070,1.2199,0.5846,-1.0376,1.705
11.2170,1.1834,0.7495,-0.6257,1.534
11.2240,0.7242,0.5864,-0.6154,1.117
11.2370,0.2419,0.0608,-0.4987,0.558
11.2430,0.4945,0.3252,-0.2618,0.647
11.2540,0.5681,0.7488,0.0437,0.941
11.2610,0.8142,1.2909,0.1379,1.532
11.2740,1.3340,1.4427,-0.1109,1.968
11.2830,1.7684,1.4005,-0.3021,2.276
11.2920,2.7902,1.3916,-0.6015,3.175
11.3000,3.7770,1.6314,-0.5490,4.151
11.3130,3.9206,1.6861,-0.6032,4.310
11.3210,3.5535,1.1716,-0.1965,3.747
11.3330,2.8178,0.3548,-0.1191,2.843
11.3420,0.9753,-0.4421,-0.3062,1.114
11.3680,-1.1378,-1.2245,0.0466,1.672
11.3710,-2.4699,-1.6462,0.8059,3.076
11.3720,-2.3775,-1.6385,1.4644,3.238
11.3810,-1.5368,-1.1916,1.5436,2.483
11.3930,-1.0145,-0.7821,1.0631,1.665
11.4020,-1.0755,-0.4501,0.5639,1.295
11.4110,-1.7525,-0.7857,0.1444,1.926
11.4210,-2.3677,-1.1133,-0.2717,2.630
11.4310,-2.6379,-1.3906,-1.1679,3.203
11.4390,-2.9784,-1.1592,-2.0843,3.816
11.4520,-3.6720,-0.9246,-2.3540,4.459
11.4590,-4.0211,-0.7219,-2.0634,4.577
11.4710,-3.4977,-0.5211,-1.6114,3.886
11.4790,-2.3490,-0.2957,-0.8508,2.516
11.4900,-1.3558,-0.1638,-0.1162,1.371
11.5000,-0.4550,-0.0015,0.4878,0.667
11.5100,0.5017,0.2154,0.8896,1.044
11.5200,1.0696,0.3108,1.1701,1.615
11.5300,1.3980,0.3191,1.2896,1.929
11.5390,1.5972,0.3617,1.1433,1.997
11.5530,1.7876,0.4355,0.7927,2.003
11.5640,1.7413,0.4449,0.2943,1.821
11.5710,1.3832,0.3145,-0.2634,1.443
11.5790,0.9718,0.1676,-0.6187,1.164
11.5900,0.5136,0.0472,-0.7852,0.939
11.6010,0.1236,-0.0392,-0.6896,0.702
11.6100,-0.2126,-0.0742,-0.4389,0.493
11.6230,-0.3431,-0.0682,-0.0838,0.360
11.6390,-0.4233,-0.0774,0.3305,0.543
11.6440,-0.4171,-0.0096,0.5711,0.707
11.6540,-0.2935,0.0776,0.8372,0.891
11.6650,-0.1445,0.1471,0.9629,0.985
11.6730,-0.0171,0.2179,1.0011,1.025
11.6870,0.1030,0.3067,0.8931,0.950
11.7070,0.1291,0.3605,0.6809,0.781
11.7100,-0.0147,0.3183,0.4857,0.581
11.7170,-0.1237,0.2927,0.3434,0.468
11.7200,-0.2641,0.1999,0.2995,0.447
11.7310,-0.3318,0.1253,0.3332,0.487
11.7420,-0.3254,0.0771,0.3615,0.492
11.7650,-0.3176,0.0124,0.2938,0.433
11.7660,-0.2042,-0.0209,0.2293,0.308
11.7710,-0.0089,-0.0350,0.0970,0.104
11.7880,0.1511,-0.0143,0.0005,0.152
11.8010,0.3527,0.0567,-0.0712,0.364
11.8030,0.5051,0.1108,-0.0493,0.519
11.8110,0.6542,0.1456,0.0103,0.670
11.8200,0.7412,0.1944,0.0029,0.766
11.8310,0.7458,0.1984,-0.0521,0.773
11.8400,0.6520,0.1540,-0.0976,0.677
11.8540,0.5579,0.1318,-0.0852,0.580
11.8600,0.4289,0.0975,-0.0322,0.441
11.8820,0.2931,0.0750,0.0038,0.303
11.8850,0.1472,0.0743,0.0170,0.166
11.8910,0.0068,0.0510,0.0565,0.076
11.9010,-0.0857,-0.0019,0.0980,0.130
11.9120,-0.1269,0.0114,0.1147,0.171
11.9210,-0.1175,-0.0121,0.1294,0.175
11.9300,-0.0847,-0.0090,0.0760,0.114
11.9400,-0.0240,-0.0261,0.0133,0.038
11.9640,0.0055,-0.0275,-0.0682,0.074
11.9680,0.0306,0.0083,-0.1425,0.146
12.0050,0.0392,0.0106,-0.1501,0.156
12.0130,0.0321,0.0464,-0.0830,0.100
12.0160,0.0154,0.0848,-0.0288,0.091
12.0210,0.0163,0.1027,-0.0214,0.106
12.0220,0.0125,0.1327,-0.0213,0.135
12.0230,0.0424,0.1423,-0.0200,0.150
12.0350,0.0531,0.1256,-0.0185,0.138
12.0410,0.0603,0.1293,-0.0180,0.144
12.0550,0.0877,0.1449,-0.0307,0.172
12.0600,0.1413,0.1821,-0.0214,0.231
12.0730,0.1347,0.1737,0.0228,0.221
12.0800,0.1144,0.1557,0.0842,0.211
12.0930,0.0903,0.1269,0.1864,0.243
12.1020,0.0791,0.1256,0.2619,0.301
12.1250,0.0771,0.1206,0.2862,0.320
12.1270,0.0766,0.1060,0.2560,0.287
12.1310,0.0835,0.0854,0.1580,0.198
12.1390,0.1027,0.0767,0.0546,0.139
12.1530,0.1488,0.0788,-0.0509,0.176
12.1600,0.2047,0.0701,-0.1254,0.250
12.1790,0.2559,0.0758,-0.1684,0.316
12.1800,0.2949,0.0840,-0.1902,0.361
12.1900,0.3011,0.1232,-0.2193,0.392
12.2040,0.2958,0.1528,-0.1777,0.377
12.2110,0.3000,0.1596,-0.1445,0.369
12.2210,0.2536,0.1758,-0.0668,0.316
12.2330,0.2206,0.1561,-0.0134,0.271
12.2430,0.1764,0.1183,0.0283,0.214
12.2550,0.1253,0.1116,0.0070,0.168
12.2600,0.0830,0.0667,-0.0440,0.115
12.2770,0.0427,0.0290,-0.0612,0.080
12.2850,0.0404,0.0118,-0.0943,0.103
12.2920,0.0413,-0.0150,-0.1431,0.150
12.3100,0.0513,0.0303,-0.2098,0.218
12.3110,0.0633,0.0983,-0.2288,0.257
12.3200,0.0481,0.1354,-0.1769,0.228
12.3310,0.0411,0.1209,-0.0522,0.138
12.3410,0.0554,0.0957,0.0142,0.111
12.3530,0.0302,0.0550,-0.0169,0.065
12.3600,-0.0010,0.0681,-0.0749,0.101
12.3750,0.0006,0.0537,-0.0852,0.101
12.3800,0.0012,0.0872,-0.0693,0.111
12.4010,0.0020,0.0992,-0.0672,0.120
12.4020,0.0018,0.0993,-0.0657,0.119
12.4100,-0.0294,0.1172,-0.1176,0.169
12.4200,-0.0162,0.1101,-0.1089,0.156
12.4320,0.0005,0.1077,-0.0795,0.134
12.4410,-0.0008,0.1089,-0.0665,0.128
12.4640,-0.0296,0.0814,-0.0776,0.116
12.4770,-0.0933,0.0742,-0.0733,0.140
12.4790,-0.1078,0.0694,-0.0727,0.147
12.4810,-0.0983,0.0551,-0.0938,0.147
12.4920,-0.0981,0.0671,-0.1534,0.194
12.5050,-0.0602,0.0505,-0.1700,0.187
12.5100,-0.0244,0.0207,-0.1688,0.172
12.5210,0.0188,0.0173,-0.1258,0.128
12.5320,0.0552,0.0439,-0.0842,0.110
12.5400,0.0962,0.0490,-0.0976,0.146
12.5570,0.0745,0.0719,-0.1218,0.160
12.5640,0.0307,0.0528,-0.1556,0.167
12.6030,0.0131,0.0505,-0.1592,0.168
12.6080,-0.0071,0.0686,-0.1287,0.146
12.6110,-0.0069,0.0687,-0.1264,0.144
12.6120,0.0112,0.1179,0.0032,0.118
12.6130,0.0270,0.1360,0.0173,0.140
12.6210,0.0500,0.1385,0.0011,0.147
12.6360,0.0596,0.1146,-0.0386,0.135
12.6400,0.0486,0.0942,-0.0574,0.121
12.6590,0.0352,0.0894,-0.0824,0.127
12.6650,0.0202,0.0821,-0.0982,0.130
12.6860,0.0255,0.0617,-0.0634,0.092
12.6870,0.0238,0.0652,-0.0498,0.085
12.6900,0.0162,0.0556,-0.0313,0.066
12.7000,0.0049,0.0496,-0.0306,0.058
12.7100,-0.0123,0.0855,-0.0455,0.098
12.7210,0.0155,0.0999,-0.0456,0.111
12.7320,0.0241,0.0999,-0.0651,0.122
12.7420,0.0436,0.1071,-0.0643,0.132
12.7540,0.0640,0.1059,-0.0587,0.137
12.7620,0.0912,0.0891,-0.0468,0.136
12.7720,0.0620,0.0627,-0.0649,0.109
12.7840,0.0433,0.0590,-0.0817,0.110
12.7910,0.0174,0.0457,-0.1391,0.147
12.8000,-0.0182,0.0504,-0.1738,0.182
12.8110,-0.0335,0.0706,-0.1603,0.178
12.8310,-0.0486,0.0514,-0.1391,0.156
12.8320,-0.0395,0.0789,-0.0632,0.109
12.8400,-0.0180,0.0874,-0.0393,0.097
12.8510,-0.0191,0.0851,-0.0155,0.089
12.8600,-0.0070,0.0768,-0.0137,0.078
12.8790,0.0160,0.0482,-0.0025,0.051
12.8840,0.0233,0.0351,-0.0422,0.060
12.8920,0.0555,0.0530,-0.0763,0.108
12.9020,0.0828,0.0841,-0.1140,0.164
12.9110,0.1434,0.1128,-0.1347,0.227
12.9210,0.1802,0.1559,-0.0880,0.254
12.9300,0.1839,0.1894,-0.0265,0.265
12.9410,0.1711,0.1976,0.0321,0.263
12.9530,0.1132,0.1829,0.1159,0.244
12.9610,0.0283,0.1513,0.1289,0.201
12.9720,-0.0532,0.0670,0.1508,0.173
12.9810,-0.1059,0.0366,0.1086,0.156
13.0150,-0.1341,0.0482,0.0341,0.146
13.0160,-0.1323,0.0730,-0.0589,0.162
13.0170,-0.1020,0.0608,-0.1128,0.164
13.0220,-0.0459,0.0307,-0.1368,0.148
13.0320,0.0192,0.0211,-0.1387,0.142
13.0410,0.0677,0.0487,-0.1433,0.166
13.0530,0.1148,0.0955,-0.1521,0.213
13.0620,0.1218,0.1326,-0.1375,0.227
13.0780,0.1041,0.1528,-0.1078,0.214
13.0820,0.0568,0.1299,-0.0736,0.160
13.0930,-0.0008,0.1080,-0.0569,0.122
13.1000,-0.0532,0.0957,-0.0581,0.124
13.1110,-0.0940,0.0976,-0.0907,0.163
13.1210,-0.1336,0.0720,-0.1212,0.194
13.1310,-0.1887,0.0608,-0.1472,0.247
13.1410,-0.2146,0.0544,-0.1635,0.275
13.1500,-0.2241,0.0493,-0.1483,0.273
13.1610,-0.2278,0.0289,-0.1231,0.261
13.1720,-0.2065,0.0122,-0.0850,0.224
13.1800,-0.1867,-0.0128,-0.1107,0.217
13.2100,-0.1649,-0.0006,-0.1334,0.212
13.2140,-0.1066,0.0416,-0.1769,0.211
13.2150,-0.0503,0.1031,-0.1785,0.212
13.2200,0.0083,0.1190,-0.1356,0.181
13.2320,0.0639,0.1576,-0.0777,0.187
13.2420,0.0829,0.1339,-0.0281,0.160
13.2520,0.0894,0.1388,0.0129,0.166
13.2630,0.0843,0.1245,-0.0076,0.151
13.2720,0.0883,0.1124,-0.0276,0.146
13.2810,0.0537,0.1158,-0.1031,0.164
13.2920,0.0128,0.1635,-0.1634,0.232
13.3000,0.0003,0.2386,-0.1614,0.288
13.3110,-0.0124,0.3090,-0.2056,0.371
13.3220,-0.0278,0.3362,-0.2091,0.397
13.3310,-0.0508,0.3299,-0.0857,0.345
13.3410,-0.0431,0.2410,0.1100,0.268
13.3520,-0.0373,0.0491,0.3455,0.351
13.3610,-0.0268,-0.0949,0.5458,0.555
13.3800,-0.0143,-0.1133,0.6050,0.616
13.3810,0.0304,-0.0169,0.5088,0.510
13.3920,0.1086,0.1559,0.2541,0.317
13.4130,0.1971,0.2951,-0.0050,0.355
13.4180,0.2787,0.3502,-0.2030,0.491
13.4200,0.3397,0.2592,-0.2828,0.512
13.4350,0.3575,0.1247,-0.2942,0.480
13.4420,0.3389,0.0091,-0.2619,0.428
13.4540,0.2299,-0.0710,-0.2357,0.337
13.4620,0.0303,-0.0809,-0.1978,0.216
13.4730,-0.2646,0.0288,-0.2098,0.339
13.4820,-0.6059,0.0666,-0.2169,0.647
13.4920,-0.8145,0.1297,-0.1857,0.845
13.5010,-0.9673,0.2082,-0.0136,0.990
13.5320,-1.1029,0.2307,0.2710,1.159
13.5360,-1.0777,0.2139,0.5785,1.242
13.5380,-1.0059,0.1699,0.9495,1.394
13.5400,-0.9732,0.1132,1.1541,1.514
13.5540,-0.9273,0.0508,1.1894,1.509
13.5630,-0.8734,-0.0125,1.0437,1.361
13.5740,-0.7775,-0.0627,0.6594,1.021
13.5830,-0.7278,-0.0267,0.2205,0.761
13.5910,-0.7190,0.0080,-0.1789,0.741
13.6010,-0.7420,0.0329,-0.5627,0.932
13.6130,-0.8471,-0.0238,-0.7826,1.154
13.6210,-0.9976,-0.0949,-0.9567,1.385
13.6370,-1.1044,-0.1300,-1.0403,1.523
13.6430,-1.2144,-0.2940,-1.1340,1.687
13.6520,-1.3410,-0.5710,-1.4440,2.052
13.6800,-1.5104,-1.1010,-2.2251,2.906
13.6840,-1.5637,-1.4670,-3.4531,4.065
13.6860,-1.7351,-1.6168,-5.1214,5.644
13.6920,-2.1951,-1.7808,-6.3253,6.928
13.7010,-2.9945,-2.1098,-7.8187,8.634
13.7120,-3.9101,-2.6776,-9.7780,10.866
13.7270,-4.5440,-3.2245,-10.5912,11.967
13.7310,-3.5533,-2.9862,-6.3092,7.833
13.7410,-3.0172,-3.1722,-4.2062,6.071
13.7520,-4.1800,-4.4800,-2.9787,6.813
13.7610,-3.6035,-6.0730,0.0317,7.062
13.7750,-3.3460,-7.5673,3.9567,9.171
13.7880,0.3779,-6.5649,-1.9827,6.868
13.8010,4.7138,-4.8543,-7.0099,9.743
13.8030,8.0546,-3.3630,-6.7346,11.025
13.8110,7.9978,-2.5677,1.0695,8.468
13.8210,5.3958,-2.4967,7.3756,9.473
13.8330,-0.9459,-2.0137,8.9582,9.230
13.8420,-4.0776,-0.4944,7.6320,8.667
13.8530,-5.3352,1.4325,2.2499,5.965
13.8640,-4.6349,1.7288,-2.2191,5.422
13.8740,-1.9098,0.4494,-2.5072,3.184
13.8830,3.0019,0.8954,-1.6245,3.529
13.8920,6.1876,1.9874,0.7020,6.537
13.9020,5.1256,3.2095,2.0914,6.399
13.9220,2.9845,4.4342,2.6342,5.959
13.9300,1.5644,5.3306,2.4438,6.069
13.9330,0.2830,5.4748,1.8177,5.776
13.9420,-0.1869,5.1042,1.5156,5.328
13.9510,0.1080,4.2792,1.6103,4.573
13.9610,-0.5197,3.5691,1.1585,3.788
13.9750,-1.0159,2.8616,1.1348,3.242
13.9800,-0.7803,2.6009,1.1950,2.967
14.0060,-1.3314,2.6465,1.4215,3.286
14.0100,-1.1360,2.9831,1.1302,3.386
14.0120,-0.3701,3.5539,0.7843,3.658
14.0210,-0.0146,3.7336,0.6765,3.794
14.0330,0.4126,3.8121,0.4118,3.856
14.0470,0.8429,3.6639,0.0086,3.760
14.0510,1.4559,3.5531,-0.3062,3.852
14.0600,1.3235,2.9301,-1.0722,3.389
14.0730,1.6020,2.7356,-1.8298,3.660
14.0800,0.9969,2.2114,-2.3736,3.394
14.0910,0.0965,1.6520,-2.6007,3.083
14.1000,-0.5993,1.2871,-2.6617,3.017
14.1240,-0.8397,1.1416,-2.3362,2.732
14.1280,-0.9657,1.1783,-2.1353,2.623
14.1310,-1.9233,0.2251,-1.9913,2.778
14.1430,-2.0648,0.0850,-1.6038,2.616
14.1520,-2.3927,0.3413,-1.5692,2.882
14.1610,-2.4960,0.7923,-1.4886,3.012
14.1730,-2.6795,0.9151,-1.4256,3.170
14.1790,-2.2823,1.2655,-1.6095,3.066
14.1950,-1.9404,1.5037,-1.8399,3.068
14.2010,-1.4707,1.7902,-2.1974,3.193
14.2220,-1.0755,1.9929,-2.3353,3.253
14.2230,-0.3480,2.1753,-2.0393,3.002
14.2310,-0.0299,2.3314,-2.0269,3.089
14.2430,0.4549,2.4025,-1.3434,2.790
14.2510,0.7480,2.5384,-1.0077,2.832
14.2620,1.1707,2.8970,-0.3160,3.141
14.2820,1.2419,3.3214,0.4995,3.581
14.2830,1.1325,3.8691,1.0995,4.179
14.3130,1.1007,3.8828,1.0830,4.179
14.3140,0.3446,3.6735,-1.5009,3.983
14.3140,0.3262,2.0700,-6.9294,7.239
14.3200,0.7648,-2.8166,-11.7188,12.077
14.3320,4.5342,-9.6529,-13.3630,17.097
14.3410,5.8450,-23.3504,-14.5865,28.146
14.3520,-2.8626,-30.6448,-15.4978,34.460
14.3600,-8.2153,-22.6432,-3.5985,24.355
14.3940,-2.9189,0.0501,8.7410,9.216
14.3990,4.2603,15.8211,16.4400,23.211
14.4050,10.7839,23.2097,17.4973,31.002
14.4090,13.3921,23.3843,14.4104,30.559
14.4130,16.1377,19.6575,4.2180,25.781
14.4220,12.4205,11.7108,1.0031,17.100
14.4320,9.1170,4.0012,8.2087,12.904
14.4410,10.2283,-4.1831,19.2609,22.206
14.4540,1.6629,-12.9470,15.6153,20.353
14.4610,-8.1062,-20.1912,3.0494,21.970
14.4730,-9.2925,-21.2545,-4.4566,23.621
14.4810,-5.0710,-12.4265,-4.9187,14.294
14.4920,-1.5164,-3.9911,0.1636,4.273
14.5000,1.3373,-0.4932,4.2028,4.438
14.5130,2.6962,2.5133,4.7872,6.042
14.5210,3.0537,4.7427,3.1924,6.482
14.5320,3.5571,6.4122,1.6376,7.513
14.5490,3.9919,7.0479,1.4883,8.235
14.5520,3.0107,5.9000,2.4255,7.054
14.5600,1.8467,4.5948,3.2683,5.933
14.5780,0.5532,3.1209,4.0406,5.135
14.5810,-0.0018,2.0666,4.2676,4.742
14.5920,0.0568,0.6464,4.9160,4.959
14.6000,-0.5486,-2.2925,5.5767,6.054
14.6100,-4.9412,-6.8313,-1.0799,8.500
14.6190,-10.4273,-9.0782,-8.0105,15.978
14.6300,-11.7321,-8.1822,-6.8002,15.838
14.6440,-10.3142,-5.3303,-5.1739,12.711
14.6500,-8.0252,-2.0935,-3.6523,9.062
14.6610,-5.9437,0.2882,-3.2968,6.803
14.6770,-3.5873,2.2303,-3.6455,5.580
14.6810,-1.6513,3.2750,-3.6739,5.191
14.6930,-0.6655,3.5882,-2.6502,4.510
14.7010,0.3540,3.3921,-1.0973,3.583
14.7110,2.9344,3.9311,0.2708,4.913
14.7190,5.8462,3.6192,2.2199,7.225
14.7300,7.8485,2.8789,1.1906,8.444
14.7430,5.8838,1.3068,-0.7364,6.072
14.7520,1.9838,-0.7192,-3.0803,3.734
14.7610,-1.8510,-1.9320,-6.4118,6.948
14.7710,-4.5958,-2.2947,-8.9504,10.320
14.7860,-6.5386,-2.6643,-9.6894,11.989
14.7910,-5.4396,-2.5633,-7.9448,9.964
14.8020,-2.5635,-1.9970,-4.3482,5.428
14.8150,0.0104,-1.9499,-1.8709,2.702
14.8240,1.5527,-2.7114,-1.1309,3.323
14.8590,1.5947,-3.5858,-2.0057,4.407
14.8620,0.0330,-3.5687,-4.1378,5.464
14.8640,-2.4989,-2.9905,-6.3408,7.443
14.8660,-5.6646,-2.4150,-6.7363,9.127
14.8700,-8.2829,-2.6156,-4.9711,10.008
14.8810,-10.7631,-4.9738,-2.7405,12.169
14.9160,-12.4742,-8.0211,0.8834,14.857
14.9180,-13.0429,-10.7183,4.1739,17.390
14.9190,-10.8876,-12.4796,0.9788,16.590
14.9200,-1.7694,-8.2760,-10.6823,13.628
14.9430,4.0271,-4.9100,-17.3620,18.487
14.9440,6.9356,-5.1707,-15.8652,18.070
14.9510,9.3396,-6.8556,-7.7758,13.953
14.9660,12.2135,-8.5162,4.3461,15.511
14.9710,12.0605,-8.9877,5.2998,15.947
14.9800,11.9661,-9.1952,3.4412,15.478
14.9940,11.6607,-8.8424,3.1196,14.963
15.0000,11.0764,-5.9587,3.6310,13.091
15.0150,8.9284,-2.9726,4.0747,10.255
15.0200,4.2361,-1.4073,4.3851,6.257
15.0310,0.8886,-1.6020,5.7414,6.027
15.0420,-2.0758,-2.6749,2.5292,4.226
15.0510,-1.1156,-2.7939,-0.1148,3.011
15.0610,-2.5241,-3.7551,3.3117,5.607
15.0710,-1.8588,-2.3959,2.6948,4.057
15.0830,0.0399,0.5750,3.5456,3.592
15.1050,2.6300,3.9278,6.0917,7.711
15.1050,3.7240,5.8536,7.9261,10.534
15.1120,4.2419,7.0313,7.1063,10.860
15.1190,2.7241,6.8176,5.7365,9.317
15.1300,1.3445,5.9019,4.7276,7.681
15.1400,-0.0207,4.6614,4.4306,6.431
15.1500,0.4024,3.7256,5.1074,6.335
15.1600,1.7041,3.6759,6.3618,7.542
15.1710,3.7515,4.6456,7.3123,9.441
15.1910,5.5153,6.0432,7.4856,11.089
15.1950,6.2840,7.1758,7.1810,11.939
15.2020,5.7673,7.8283,6.9782,11.968
15.2130,5.3249,8.0702,7.0201,11.948
15.2220,4.6575,8.1141,6.5507,11.421
15.2320,3.2314,7.4900,6.5141,10.439
15.2410,1.6774,6.6746,6.7205,9.619
15.2510,0.1493,5.8876,6.3787,8.682
15.2610,-0.8455,5.4406,5.0909,7.499
15.2780,-1.2263,5.5527,2.3595,6.157
15.2810,-0.8835,5.9435,-0.9220,6.079
15.3180,0.1816,6.3619,-5.1401,8.181
15.3210,0.1070,5.5469,-8.0271,9.758
15.3240,-1.8835,2.7901,-10.2713,10.809
15.3260,-3.8902,-1.3910,-10.6828,11.454
15.3320,-4.0640,-5.6204,-8.8322,11.230
15.3440,-2.9641,-10.0739,-6.4949,12.347
15.3510,-0.8897,-12.6404,-3.0291,13.029
15.3660,0.8476,-13.2271,-3.5912,13.732
15.3720,2.8438,-12.3620,-7.4940,14.733
15.3820,7.5705,-15.1529,-6.6544,18.199
15.3920,12.9443,-21.2731,-4.8534,25.370
15.4000,11.2179,-28.8724,-12.6799,33.470
15.4120,8.9925,-22.9316,2.2836,24.737
15.4200,11.4884,-2.0818,15.3994,19.325
15.4340,8.8507,6.8064,14.4702,18.277
15.4650,6.4446,9.7309,8.0066,14.154
15.4660,5.2477,10.4908,4.5734,12.590
15.4670,5.3948,10.6782,3.4205,12.443
15.4740,7.0482,9.9193,3.7182,12.724
15.4810,8.4846,7.8264,5.4649,12.771
15.4940,6.8477,5.5920,9.5132,12.987
15.5020,4.4961,3.9780,17.2010,18.219
15.5120,3.0823,2.1174,16.8792,17.288
15.5270,1.0848,0.5047,15.7860,15.831
15.5310,0.8747,0.6121,15.4511,15.488
15.5540,3.4980,-0.7575,9.4738,10.127
15.5570,4.3438,-0.3590,5.7265,7.197
15.5600,3.9991,-0.4882,3.2659,5.186
15.5700,2.7426,-1.0071,2.8064,4.051
15.5810,0.4537,-2.3683,3.7163,4.430
15.6000,-1.8192,-3.7324,4.6156,6.208
15.6010,-3.9485,-4.7931,4.8697,7.892
15.6120,-4.6099,-4.5060,4.1535,7.668
15.6190,-3.6258,-3.6322,5.5088,7.529
15.6310,-7.1364,-5.4615,-0.7185,9.015
15.6430,-11.1899,-6.5323,-8.7830,15.653
15.6500,-13.7568,-6.1514,-16.6012,22.421
15.6670,-14.8740,-5.6399,-18.8746,24.684
15.6770,-13.0205,-4.4120,-14.5263,20.000
15.7250,-8.7485,-2.4034,-8.6663,12.547
15.7260,-4.7724,-1.2446,-0.8855,5.011
15.7270,-3.3968,-1.0848,1.1915,3.760
15.7280,-2.4269,-0.4821,-2.9101,3.820
15.7290,-0.0772,0.8115,-7.7613,7.804
15.7300,2.2744,1.1025,-10.6985,10.993
15.7390,2.5584,-0.0731,-9.3472,9.691
15.7510,2.3579,-0.1760,-6.2574,6.689
15.7630,2.6599,0.7698,-4.6830,5.440
15.7700,1.7224,1.3978,-3.7266,4.337
15.7940,-0.1815,1.2298,-2.7767,3.042
15.7960,-1.4064,0.6095,-1.1826,1.936
15.8000,-1.7422,-0.0498,-0.4122,1.791
15.8120,-3.1482,-1.4029,-1.7432,3.862
15.8250,-4.7118,-2.5782,-4.2126,6.826
15.8320,-6.1034,-3.2326,-7.5687,10.246
15.8390,-6.5462,-2.9588,-9.5676,11.964
15.8500,-6.7872,-2.3424,-10.0728,12.370
15.8610,-7.2719,-2.1627,-9.1928,11.919
15.8700,-8.8964,-4.1016,-5.8477,11.409
15.8890,-10.8951,-7.6801,-3.6018,13.808
15.8940,-12.9841,-12.2157,-3.9814,18.266
15.9020,-11.5650,-12.4953,-6.9154,18.377
15.9220,-7.0707,-10.8710,-10.9194,16.953
15.9240,-3.7295,-11.4690,-5.3416,13.190
15.9310,1.1330,-10.6568,2.2268,10.946
15.9410,6.2691,-8.7102,4.7128,11.721
15.9520,6.8197,-7.2105,6.1426,11.672
16.0060,8.5030,-10.4437,6.5855,14.991
16.0140,10.6731,-14.6192,4.0699,18.553
16.0180,8.2705,-17.5893,4.2199,19.889
16.0220,8.0311,-15.9061,8.9762,19.952
16.0250,4.1128,-8.1806,12.4014,15.415
16.0300,-1.8036,-5.3083,-1.2534,5.745
16.0330,3.9956,-2.7598,-15.4990,16.242
16.0350,6.8269,-1.3968,-11.7079,13.625
16.0410,6.6939,0.2700,3.3557,7.493
16.0510,7.7053,3.8416,4.7445,9.831
16.0610,5.8967,5.8261,8.6508,11.981
16.0710,6.1407,7.0644,10.3194,13.932
16.0800,3.3557,7.3710,10.1027,12.948
16.0910,-0.6491,6.9839,9.5106,11.817
16.1100,-2.9647,6.7107,8.5372,11.256
16.1150,-2.2547,6.5577,7.3942,10.137
16.1200,-1.9530,5.6353,6.6901,8.963
16.1430,-1.0694,5.1586,6.0175,7.998
16.1480,1.6599,5.4387,4.9480,7.538
16.1520,7.2745,7.1472,4.9918,11.354
16.1630,10.2147,9.4581,6.4122,15.327
16.1710,10.5730,10.8306,8.7691,17.492
16.1830,8.8045,11.2373,10.6118,17.788
16.1920,6.7187,10.5890,10.3528,16.262
16.2000,4.8840,9.5419,9.0703,14.042
16.2250,2.1008,7.7785,7.7225,11.160
16.2270,0.0964,6.7061,6.3899,9.263
16.2300,-0.9666,6.2202,3.3442,7.128
16.2400,-1.9768,5.5625,-2.4328,6.385
16.2500,-5.5886,3.2724,-11.2199,12.955
16.2620,-8.0722,0.6188,-14.4388,16.554
16.2710,-8.9711,-2.8998,-10.1330,13.841
16.2810,-5.7104,-5.5005,-5.9664,9.923
16.2930,-1.2620,-7.5545,-5.2824,9.304
16.3140,-1.3629,-9.8226,-5.1373,11.168
16.3190,-1.4921,-9.7670,-5.2668,11.196
16.3230,-3.5646,-8.6951,-7.1897,11.832
16.3340,-3.5277,-5.3080,-4.7420,7.944
16.3410,3.5625,-4.5094,4.0435,7.027
16.3510,11.3415,-6.8294,1.4140,13.314
16.3600,21.6296,-15.2340,-9.7758,28.204
16.3720,26.0955,-22.6294,-13.6976,37.158
16.3820,11.6974,-13.1922,1.8329,17.726
16.3910,3.7471,-1.0857,12.9441,13.519
16.4320,1.4842,2.8450,10.7940,11.261
16.4380,1.0340,5.3164,9.4147,10.861
16.4430,0.8725,6.6496,8.1244,10.535
16.4500,-0.3681,6.7782,8.6056,10.961
16.4540,-1.2656,6.0013,10.4277,12.098
16.4600,-1.6813,5.0286,11.9600,13.083
16.4630,-0.2873,4.0491,14.1950,14.764
16.4720,2.0650,2.7639,12.4796,12.948
16.4800,2.1740,0.5791,12.7092,12.907
16.4900,-0.4217,-3.2777,14.8028,15.167
16.5000,-2.6789,-7.0336,12.6127,14.688
16.5130,-1.7918,-7.1772,6.3015,9.718
16.5190,-0.5505,-5.3473,3.8156,6.592
16.5350,-0.4915,-3.7868,3.0608,4.894
16.5390,-0.9598,-2.0498,3.8169,4.438
16.5510,-1.2802,-0.2275,6.5304,6.659
16.5620,-4.1102,-1.1291,0.3873,4.280
16.5700,-5.9921,-1.6146,-8.3153,10.376
16.5800,-6.8969,-0.6849,-13.7932,15.437
16.5900,-6.5276,0.9163,-12.4861,14.119
16.6080,-6.5171,0.8778,-12.7837,14.376
16.6130,-3.4879,3.1699,-5.7712,7.451
16.6230,-3.7482,1.0415,-1.6572,4.228
16.6330,-2.6477,-0.4451,0.6380,2.760
16.6410,0.1877,-1.0740,-2.0751,2.344
16.6600,1.5196,-1.1015,-6.2137,6.491
16.6610,1.4216,-0.5716,-8.1227,8.266
16.6710,0.2871,-0.1694,-6.7845,6.793
16.6790,-1.7121,-0.3204,-3.7132,4.101
16.6900,-2.2988,-0.4639,-1.3576,2.710
16.7010,-2.7269,-0.8033,0.1793,2.848
16.7260,-3.1876,-1.0293,-1.7050,3.759
16.7270,-3.0747,-0.8649,-6.5984,7.331
16.7310,-3.0604,-0.8221,-9.5043,10.019
16.7390,-3.2467,-0.9141,-7.7693,8.470
16.7510,-3.7154,-1.6116,-4.0683,5.740
16.7600,-5.9578,-3.3406,-1.0962,6.918
16.7700,-8.7322,-4.5043,-1.0734,9.884
16.7840,-10.1628,-4.3363,-3.6186,11.627
16.7920,-9.4011,-3.5232,-6.3382,11.873
16.8180,-8.1757,-3.0753,-7.5542,11.548
16.8190,-6.5693,-2.5315,-9.1939,11.580
16.8200,-5.7129,-2.3470,-10.4316,12.123
16.8450,-7.0143,-4.9104,-9.5067,12.794
16.8460,-8.8146,-8.2190,-7.3360,14.109
16.8540,-8.0659,-9.8314,-4.1581,13.379
16.8670,-5.8621,-10.1721,-4.3804,12.531
16.8770,0.2701,-10.7226,0.8703,10.761
16.8850,3.0743,-9.5922,9.3896,13.770
16.8950,3.2625,-8.4324,9.3610,13.015
16.9060,4.0138,-9.8732,7.7590,13.183
16.9150,7.6496,-12.9260,5.4845,15.990
16.9450,11.7636,-16.7442,1.3322,20.507
16.9510,11.9577,-19.0204,-4.2506,22.865
16.9560,6.6348,-15.7123,-3.6669,17.445
16.9620,6.8220,-15.7512,-3.4546,17.509
16.9670,-2.8569,-7.6991,10.3705,13.228
16.9730,4.9188,-2.3458,-3.1721,6.306
16.9810,6.9811,0.7478,-8.4658,10.998
16.9930,6.2401,1.7627,-0.8749,6.543
17.0310,6.8746,2.0671,8.1807,10.884
17.0320,6.4467,2.8974,16.4001,17.858
17.0330,5.6654,4.3191,12.2546,14.175
17.0340,3.8825,5.4956,8.2275,10.629
17.0410,1.8566,5.9312,7.3183,9.601
17.0610,0.5672,6.3167,6.3687,8.988
17.0630,0.8971,6.2795,6.8436,9.331
17.0710,0.6357,5.9395,7.4660,9.562
17.0890,1.9625,6.5337,7.0954,9.843
17.0930,3.9857,7.8045,7.7363,11.690
17.1010,7.3315,9.7406,8.5083,14.867
17.1130,9.7475,11.3359,9.9589,17.964
17.1210,10.4379,12.2013,11.9427,20.011
17.1440,8.3532,11.6311,12.1740,18.795
17.1450,5.2792,10.1943,11.5079,16.255
17.1510,2.3377,8.3303,10.2842,13.440
17.1630,0.4324,6.2332,9.0206,10.973
17.1720,-0.5912,5.4183,6.3960,8.403
17.1830,-1.2334,5.2055,1.0580,5.453
17.1910,-2.3167,4.3522,-5.5552,7.428
17.2030,-2.7861,2.7985,-12.4925,13.102
17.2130,-2.6803,0.6377,-13.6774,13.952
17.2220,-2.9840,-3.1544,-11.4242,12.222
17.2560,-0.9895,-6.9417,-7.7471,10.449
17.2570,0.7176,-10.3252,-6.3654,12.151
17.2590,0.0011,-13.3849,-9.7021,16.531
17.2600,0.7897,-18.6863,-15.8628,24.524
17.2810,7.9266,-28.3556,-16.0320,33.525
17.2880,14.7446,-30.4510,-16.1512,37.490
17.2920,7.0541,-30.4389,-12.3974,33.615
17.3120,4.4433,-5.6379,7.6211,10.469
17.3140,4.2043,7.7082,22.8070,24.439
17.3210,4.0448,14.1294,15.9181,21.665
17.3340,5.6973,15.7932,11.5114,20.357
17.3410,8.3836,16.1658,8.0770,19.921
17.3510,8.4658,13.7735,6.6473,17.480
17.3610,6.8615,9.0456,10.4994,15.464
17.3710,6.6373,4.7264,15.3316,17.362
17.3820,6.3067,1.6963,21.2420,22.223
17.3910,7.4156,-2.2073,25.6304,26.773
17.4080,4.7405,-5.8003,24.3161,25.444
17.4120,3.1876,-9.2124,20.2558,22.479
17.4470,0.9875,-10.5280,15.2752,18.578
17.4490,1.5845,-9.1467,7.9796,12.241
17.4500,3.4800,-7.1382,3.4555,8.661
17.4510,4.2058,-6.0035,1.0414,7.404
17.4630,2.5093,-6.0623,-0.4317,6.575
17.4700,0.4432,-5.6826,-0.8785,5.767
17.4790,-1.3396,-4.1399,-16.0267,16.607
17.4900,-7.6502,-5.0586,-13.7721,16.546
17.5010,-12.0427,-5.7991,-5.8035,14.572
17.5240,-14.3845,-4.3418,-0.4660,15.033
17.5260,-13.3586,-1.6080,2.2628,13.644
17.5480,-9.2291,2.0374,2.2625,9.718
17.5510,-6.7306,3.4852,2.1463,7.877
17.5520,-5.4030,4.6124,1.7876,7.325
17.5590,-4.5973,4.6976,1.2821,6.697
17.5710,-2.4453,4.2032,-0.7702,4.923
17.5910,0.4187,4.0439,-3.6409,5.458
17.5920,1.1918,1.7286,-4.6497,5.102
17.6030,-0.4649,-0.9201,-4.6741,4.786
17.6160,-0.7532,-0.4943,-5.5654,5.638
17.6250,1.0114,0.0283,-6.0416,6.126
17.6350,3.3542,-0.7515,-4.5508,5.703
17.6410,4.9877,-1.0337,-3.4484,6.151
17.6540,5.1605,-1.5003,-5.5620,7.734
17.6750,2.2774,-2.2367,-9.2859,9.819
17.6820,-2.4467,-3.4150,-9.5291,10.414
17.6870,-6.7974,-4.6483,-5.1091,9.691
17.6990,-9.1297,-5.6693,-1.0368,10.797
17.7030,-12.6421,-7.6157,2.7542,15.014
17.7110,-15.5308,-8.4161,2.0641,17.785
17.7270,-16.4066,-7.0152,-2.9105,18.079
17.7330,-15.4693,-5.5070,-7.3844,18.004
17.7660,-14.5946,-6.4902,-7.8352,17.791
17.7680,-14.6050,-6.4887,-7.7944,17.781
17.7690,-13.7162,-9.1715,-4.1372,17.011
17.7720,-2.1841,-10.4839,-0.0345,10.709
17.7820,8.3578,-7.9919,-5.6052,12.851
17.7920,12.7769,-6.8388,-14.1666,20.266
17.8020,15.8284,-9.3222,-15.9034,24.297
17.8100,16.8739,-10.7446,-5.5887,20.770
17.8400,13.4428,-9.4317,1.1029,16.459
17.8410,8.7622,-9.1117,3.9665,13.249
17.8420,6.5306,-9.8598,4.2947,12.582
17.8720,6.9304,-9.9925,3.6980,12.710
17.8750,8.1152,-8.4128,3.0572,12.082
17.8770,6.4840,-5.5567,7.1581,11.143
17.8800,0.8653,-3.5771,8.1622,8.954
17.8920,-3.3566,-3.9280,6.8152,8.552
17.9020,-5.0584,-5.2803,4.3517,8.509
17.9120,-4.9061,-5.9064,2.0901,7.958
17.9210,-3.7237,-5.3275,2.2249,6.870
17.9330,-0.0906,-3.4129,3.9373,5.211
17.9400,4.6457,-0.6331,6.7146,8.190
17.9620,6.2372,2.2781,7.7728,10.223
17.9630,5.6591,4.0820,8.7630,11.202
17.9710,3.9434,6.4052,9.0553,11.772
17.9820,2.5608,8.0346,9.0205,12.348
17.9920,2.5283,9.1271,9.4449,13.375
18.0020,3.4751,10.0351,9.5023,14.250
18.0150,4.7683,9.9516,10.3116,15.103
18.0210,5.8219,9.4684,10.5234,15.306
18.0340,6.0814,9.3703,10.6322,15.422
18.0480,5.2624,8.7830,10.8531,14.921
18.0510,3.7141,8.2048,10.8886,14.131
18.0610,3.1048,7.8159,10.3106,13.305
18.0820,2.5953,7.6584,9.3461,12.359
18.0850,2.0389,7.5762,7.8787,11.119
18.0910,1.9442,7.2121,4.9149,8.942
18.1010,1.1532,6.5589,-0.9413,6.726
18.1120,-2.0840,4.3097,-8.0232,9.343
18.1240,-5.2538,1.6793,-10.9135,12.228
18.1330,-6.6403,-0.8834,-9.9907,12.029
18.1400,-6.8376,-3.8681,-5.9556,9.858
18.1520,-0.8710,-5.9885,-4.5708,7.584
18.1690,2.5207,-7.7962,-4.8127,9.503
18.1720,2.8009,-9.2353,-7.3634,12.139
18.1820,4.8947,-9.5537,-11.4241,15.676
18.1920,8.8280,-11.3464,-15.0451,20.809
18.2060,16.3835,-16.9593,-9.7048,25.499
18.2110,18.4140,-22.1194,-6.8551,29.586
18.2470,7.1805,-17.3431,0.5290,18.778
18.2530,3.5429,-5.0899,14.4502,15.725
18.2610,1.0054,1.9757,20.9895,21.106
18.2670,0.6393,5.4449,14.3867,15.396
18.2700,2.5422,8.0326,9.4389,12.652
18.2730,3.5156,8.0725,6.2090,10.774
18.2810,4.0815,6.8325,4.7639,9.276
18.2970,4.2535,5.6259,6.1418,9.352
18.3010,5.4904,3.9853,10.8337,12.783
18.3240,5.1683,2.0832,14.2602,15.310
18.3250,5.7273,0.0483,15.9811,16.976
18.3320,5.4285,-2.1133,15.2421,16.317
18.3420,3.0518,-3.8728,12.4465,13.388
18.3520,1.2694,-5.3085,10.3143,11.669
18.3600,0.3979,-6.4030,7.9833,10.242
18.3750,0.6654,-6.8855,5.6474,8.930
18.3820,0.8913,-6.0314,3.2452,6.907
18.3900,0.6483,-4.8086,2.0571,5.270
18.4030,0.4943,-4.7615,1.6324,5.058
18.4110,-1.0828,-1.5077,3.3452,3.826
18.4290,-7.1191,-2.1436,-12.9124,14.900
18.4310,-12.1306,-2.5860,-12.3166,17.480
18.4390,-13.4043,-1.0732,-8.9763,16.168
18.4530,-11.0158,1.1975,-5.0620,12.182
18.4600,-6.7770,3.6926,-1.8191,7.929
18.4780,-4.8364,3.6898,-0.0311,6.083
18.5020,-2.4430,2.9987,0.8261,3.955
18.5030,-0.5042,2.3779,0.6642,2.520
18.5040,1.8137,1.4394,0.2700,2.331
18.5100,2.8215,0.4424,0.2790,2.870
18.5210,2.4014,0.0608,-0.2511,2.415
18.5430,1.7686,0.3279,-1.3043,2.222
18.5440,1.9999,0.1014,-2.5724,3.260
18.5550,2.3087,-1.0293,-5.3326,5.901
18.5660,1.4705,-1.4159,-7.9904,8.247
18.5740,-0.1099,-1.1917,-9.8697,9.942
18.5840,-1.8272,-1.6689,-10.1349,10.433
18.5930,-3.9200,-3.0981,-6.9414,8.553
18.6010,-5.7462,-4.2517,-2.7491,7.659
18.6120,-7.2045,-5.0938,0.5312,8.839
18.6230,-8.0048,-5.6087,1.9357,9.964
18.6320,-8.9861,-6.5330,1.9710,11.283
18.6410,-10.2592,-7.0241,-0.7483,12.456
18.6540,-11.2498,-6.6598,-4.8527,13.945
18.6600,-11.0099,-5.9525,-8.0774,14.896
18.7080,-10.4675,-7.0762,-10.3731,16.348
18.7110,-10.6770,-9.8439,-8.5443,16.850
18.7130,-9.4330,-11.6299,-3.8738,15.467
18.7150,-7.0914,-10.3087,-1.4909,12.601
18.7170,-3.3203,-7.4745,-4.0174,9.112
18.7200,0.5083,-5.9826,-6.9454,9.181
18.7350,3.9201,-7.2029,-5.8009,10.045
18.7400,6.0684,-8.3436,-1.7186,10.459
18.7700,7.8802,-8.3083,1.3105,11.526
18.7710,7.3531,-8.1943,3.3834,11.518
18.7730,6.4452,-9.8449,4.7104,12.675
18.7820,7.9817,-12.0953,3.7467,14.968
18.7910,9.1859,-13.6288,3.5307,16.810
18.8000,8.5417,-12.5124,6.2788,16.400
18.8110,5.3417,-8.4938,10.8340,14.767
18.8310,-0.2610,-5.9239,10.9536,12.456
18.8320,-4.2417,-5.4057,0.0662,6.872
18.8570,-2.1634,-5.1579,-6.9572,8.927
18.8580,0.6800,-5.1813,-0.0735,5.226
18.8600,7.0692,-3.0710,2.4008,8.073
18.8730,8.2648,-0.7930,3.7964,9.130
18.8850,6.6552,0.4059,6.2446,9.135
18.8930,5.0635,1.0641,6.8890,8.616
18.9030,1.9990,1.4895,6.8379,7.278
18.9110,0.8033,2.6337,7.8251,8.295
18.9220,1.8418,3.2572,9.4389,10.154
18.9330,3.5107,3.7127,10.1646,11.377
18.9420,5.4257,4.7492,10.1760,12.472
18.9530,6.2618,5.9376,10.1978,13.359
18.9610,6.5764,7.5685,9.8871,14.081
19.0000,6.4140,9.0904,10.3055,15.165
19.0030,5.0795,9.8654,11.5561,16.021
19.0060,6.2214,10.8441,11.7744,17.174
19.0090,5.6736,10.7198,11.3090,16.583
19.0130,5.2091,10.2387,10.7073,15.704
19.0210,4.0406,9.0949,9.7650,13.943
19.0340,2.5009,8.4690,8.9569,12.578
19.0400,0.7091,7.5759,8.0287,11.062
19.0530,-0.2798,6.6943,6.4384,9.292
19.0620,-0.3026,6.3944,4.1304,7.618
19.0710,-0.5108,6.2683,2.0711,6.621
19.0950,-1.9493,5.3823,0.5462,5.750
19.0960,-3.0456,4.4724,-1.0955,5.521
19.1020,-4.0906,2.8243,-4.0803,6.431
19.1110,-5.2063,0.8220,-3.1756,6.153
19.1250,-6.1604,-3.1756,-1.7527,7.149
19.1330,-4.0927,-7.8385,-2.0462,9.076
19.1600,-1.2695,-9.7760,-2.3807,10.141
19.1630,1.1369,-10.4773,-3.0507,10.971
19.1640,1.6767,-9.4237,-1.9239,9.763
19.1710,0.5523,-6.0662,-2.6033,6.624
19.1810,-0.9604,-1.8212,-6.7671,7.073
19.1910,-0.6460,2.5945,-10.5678,10.901
19.2060,0.5214,5.4093,-0.0783,5.435
19.2110,9.0779,6.8822,6.6420,13.187
19.2560,9.1268,6.9354,6.5689,13.212
19.2600,38.3604,-17.6022,-16.7905,45.423
19.2720,9.8371,-30.7569,-3.9187,32.529
19.2770,-23.2122,-30.6651,16.3770,41.801
19.2830,-17.2329,-14.4460,22.6800,31.938
19.2930,-4.2350,1.2059,10.5827,11.462
19.2980,-1.9138,7.7434,-1.0739,8.048
19.3030,-0.6759,11.1717,-0.5449,11.205
19.3070,0.2928,10.7723,3.9534,11.479
19.3120,2.5926,9.1582,6.5375,11.547
19.3210,4.7470,7.1527,7.5832,11.454
19.3310,7.7429,3.8861,7.7766,11.642
19.3400,9.6969,0.9895,6.3515,11.634
19.3730,9.6550,-2.4489,5.2063,11.239
19.3780,6.3913,-6.1089,4.9575,10.136
19.3820,3.0062,-9.4000,4.1245,10.696
19.3850,2.6105,-8.1080,2.4981,8.877
19.3930,2.0992,-5.6202,0.6750,6.037
19.4090,0.2867,-3.9988,-0.5827,4.051
19.4120,-2.3846,-2.6938,-1.1865,3.788
19.4470,-5.4774,-0.7046,-1.9921,5.871
19.4480,-7.4072,1.0228,-3.4343,8.228
19.4490,-8.9226,2.1903,-5.0104,10.465
19.4520,-10.3531,2.2378,-3.8358,11.265
19.4600,-11.7215,0.8579,-2.2306,11.963
19.4740,-11.2741,0.0912,-1.3217,11.352
19.4800,-8.8383,-0.3255,0.0571,8.844
19.5080,-4.9070,0.8855,0.5583,5.017
19.5100,-2.5074,2.0081,1.6777,3.624
19.5120,-2.3213,2.3056,3.4566,4.759
19.5320,-1.4710,2.5227,3.7924,4.786
19.5330,-0.2762,2.3192,3.5056,4.212
19.5400,1.5686,1.2769,3.5584,4.093
19.5530,3.6288,0.5121,2.2482,4.299
19.5590,5.1256,-0.7570,-1.7620,5.473
19.5810,3.9235,-1.8781,-12.6690,13.395
19.5850,1.5949,-1.7951,-23.9837,24.104
19.5910,1.1938,-0.7522,-18.2291,18.284
19.6040,1.0471,-1.0205,-7.4668,7.609
19.6110,-0.6080,-2.5760,-0.7581,2.753
19.6310,-4.5560,-4.6018,2.6099,6.982
19.6320,-9.3723,-6.7057,-0.8855,11.558
19.6390,-11.3865,-8.1075,-5.9941,15.209
19.6540,-12.8218,-9.1162,-10.3089,18.809
19.6600,-12.7276,-8.4221,-10.8072,18.701
19.6830,-12.2055,-7.9100,-8.1355,16.665
19.6860,-11.4132,-8.7854,-6.3729,15.750
19.6900,-10.4895,-9.9564,-6.2453,15.753
19.7010,-7.5853,-8.3740,-5.9481,12.769
19.7110,-5.5987,-7.1431,-3.5627,9.750
19.7230,-4.5968,-7.3667,-2.6855,9.089
19.7310,-1.4757,-7.5104,-3.9019,8.591
19.7800,2.8902,-6.5828,-3.9740,8.215
19.7810,5.5092,-5.7139,2.4009,8.292
19.7820,5.2893,-5.9977,5.7706,9.862
19.7820,3.7809,-7.3734,5.8722,10.156
19.8160,4.5044,-9.3367,3.8995,11.076
19.8200,6.3854,-10.5373,2.7375,12.621
19.8230,8.0912,-9.3953,2.7658,12.704
19.8260,8.8290,-7.2763,0.2155,11.443
19.8290,5.9767,-5.1625,2.2304,8.207
19.8320,2.0311,-3.7034,4.9548,6.511
19.8410,2.8089,-2.2468,3.4882,5.011
19.8550,3.2204,0.0090,0.7750,3.312
19.8600,2.1645,1.4043,2.2703,3.437
19.8990,1.8434,1.7301,6.0435,6.551
19.9000,2.9296,2.1591,8.0600,8.844
19.9010,3.2080,3.2458,9.4849,10.526
19.9020,2.0352,3.7257,9.0990,10.041
19.9110,-1.4160,3.8758,6.5963,7.781
19.9230,-2.2173,4.9104,5.3289,7.578
19.9320,-1.5949,6.1969,7.2047,9.636
19.9430,-0.1285,6.9026,8.1913,10.713
19.9790,1.5590,6.9533,9.1357,11.586
19.9800,3.6955,6.7861,10.0432,12.672
19.9810,6.4672,7.4769,10.8341,14.667
19.9810,7.6494,8.0382,10.7478,15.448
19.9920,9.1676,8.8656,10.0331,16.227
20.0060,8.3217,8.9392,9.6503,15.566
20.0110,6.4134,9.0598,8.3518,13.891
20.0620,4.4583,8.9857,4.4460,10.972
20.0720,3.8258,8.1744,0.4849,9.038
20.0790,2.0939,5.8464,-5.1075,8.041
20.0820,-2.6245,1.6224,-11.0609,11.483
20.0860,-8.7333,-4.6519,-18.6748,21.134
20.0890,-10.4884,-9.7303,-16.5002,21.839
20.0930,-4.8265,-10.7190,-2.2554,11.970
20.0960,-1.8425,-8.0449,-2.0818,8.512
20.1030,-0.8742,-6.4382,-6.1762,8.964
20.1110,-1.5333,-5.0360,-6.9976,8.757
20.1200,0.0075,-1.0684,-0.3646,1.129
20.1320,5.4297,2.2909,9.2653,10.981
20.1430,16.4578,2.0713,5.8125,17.577
20.1870,24.3749,-3.7374,-3.7735,24.947
20.1940,14.0951,-17.6772,-11.2855,25.269
20.1980,0.0049,-19.2081,9.6650,21.503
20.2010,1.0715,-6.6121,16.0909,17.429
20.2040,3.3919,2.1922,7.5176,8.534
20.2060,3.1235,4.2880,5.9054,7.938
20.2130,3.1144,5.1877,3.8124,7.152
20.2230,3.7805,4.9954,2.8838,6.897
20.2310,4.6062,4.3101,3.1217,7.038
20.2600,5.3003,3.2766,3.6902,7.242
20.2610,5.3057,2.3560,4.2226,7.179
20.2620,4.8274,1.4583,4.8837,7.020
20.2710,4.0018,0.5553,5.3887,6.735
20.2810,2.8182,-0.7715,6.2328,6.884
20.2910,0.4935,-2.4895,8.2679,8.649
20.2990,-0.7367,-3.3856,9.4849,10.098
20.3100,-0.6395,-3.7341,8.8219,9.601
20.3370,-1.2259,-3.3480,7.9684,8.730
20.3400,-2.2039,-2.7332,6.7497,7.608
20.3400,-2.5501,-1.8820,5.8173,6.625
20.3520,-3.0241,-0.7591,5.5005,6.323
20.3600,-3.7380,-0.5815,0.3226,3.797
20.3720,-7.3408,-1.7516,-14.5254,16.369
20.3800,-7.8787,-0.7852,-16.8288,18.598
20.3920,-7.8648,0.8547,-12.7098,14.971
20.3990,-6.4661,2.1325,-7.1941,9.905
20.4110,-3.7092,3.2006,-2.2392,5.387
20.4400,-1.8915,2.8157,1.6102,3.755
20.4420,-0.1365,2.1681,4.3563,4.868
20.4430,1.5399,1.9186,3.7788,4.509
20.4500,2.0187,0.7414,0.8935,2.329
20.4590,1.4316,-0.1525,-1.8191,2.320
20.4700,0.4775,-0.7838,-3.8681,3.976
20.4820,-0.1310,-1.5325,-4.6891,4.935
20.4960,-0.4945,-2.8878,-5.2843,6.042
20.5080,-0.4314,-4.0057,-6.7465,7.858
20.5140,-0.7644,-4.7101,-10.1519,11.217
20.5510,-1.5055,-4.6860,-14.4971,15.310
20.5640,-2.0892,-4.3663,-15.7446,16.472
20.5700,-2.0399,-4.4646,-11.9495,12.918
20.5750,-2.1306,-4.6238,-5.8631,7.765
20.5810,-4.0290,-5.1789,-3.4109,7.395
20.5870,-7.2489,-5.5644,-2.4725,9.467
20.5920,-9.4026,-5.4747,-4.6999,11.852
20.5970,-11.1109,-5.7680,-7.8147,14.758
20.6000,-12.9548,-8.1638,-7.8457,17.205
20.6120,-13.8076,-9.8413,-4.7862,17.618
20.6490,-13.1326,-10.2326,-0.9538,16.676
20.6500,-10.2250,-9.7097,-1.1601,14.148
20.6510,-5.1261,-8.4181,-5.9063,11.490
20.6520,-0.6129,-7.9984,-9.2929,12.276
20.6600,4.5016,-7.1656,-3.0506,8.995
20.6750,6.6876,-6.6255,3.2743,9.967
20.6810,5.5361,-6.1815,6.0305,10.258
20.7070,5.6319,-7.9310,6.1609,11.514
20.7130,6.9445,-10.7168,3.5872,13.264
20.7170,7.3481,-13.1431,3.5151,15.463
20.7210,7.9683,-12.6531,3.7534,15.417
20.7340,8.4374,-9.0886,6.0502,13.798
20.7730,4.2870,-4.5610,7.2599,9.586
20.7750,2.4482,-2.5971,-0.9343,3.689
20.7750,4.9381,0.1043,-9.2446,10.481
20.7760,5.7902,1.3289,-1.0318,6.030
20.7850,4.5491,2.1670,4.9604,7.071
20.8080,2.0784,2.7010,6.8603,7.660
20.8090,2.4461,4.0248,5.6144,7.328
20.8120,2.4524,5.4690,6.7140,9.000
20.8210,2.5343,5.4102,6.8814,9.113
20.8310,1.0705,6.2566,7.1513,9.562
20.8470,0.4709,6.3640,6.5503,9.145
20.8830,0.7152,6.4589,6.1478,8.946
20.8890,1.2959,6.1660,6.8334,9.295
20.8920,1.9317,5.6618,7.0557,9.250
20.8940,3.8856,5.7840,7.1966,10.017
20.8960,6.5037,7.0889,7.2710,12.059
20.9020,7.5143,8.1541,7.1761,13.208
20.9120,7.7154,8.9427,7.4478,13.963
20.9240,7.3304,9.3860,7.7914,14.232
20.9310,5.1880,9.2107,7.2683,12.829
20.9650,3.5523,8.7273,6.6112,11.511
20.9660,1.1724,7.8260,4.8397,9.276
20.9670,0.3073,7.2606,1.5860,7.438
20.9740,-1.0151,6.0834,-4.1392,7.428
20.9800,-4.2078,3.7477,-8.3573,10.079
20.9930,-6.8713,0.7848,-17.1382,18.481
21.0030,-8.0822,-2.8123,-16.0618,18.199
21.0130,-3.9236,-6.7581,-4.6681,9.103
21.0220,0.3052,-8.8130,-1.7882,8.998
21.0310,2.0611,-11.0842,-3.5173,11.810
21.0400,2.0798,-12.0879,-6.6975,13.975
21.0660,2.1200,-9.9089,-9.3782,13.807
21.0670,6.0425,-8.9261,-6.2828,12.476
21.0970,15.3661,-13.1112,2.6973,20.379
21.0980,16.1980,-16.7188,1.2309,23.311
21.0990,3.9470,-9.8889,5.8720,12.159
21.1000,3.7774,0.7502,10.1720,10.877
21.1290,4.1154,5.4162,6.7265,9.566
21.1340,3.3509,6.3700,5.8199,9.256
21.1390,2.6921,6.3070,4.9508,8.458
21.1430,2.8732,6.0128,3.9781,7.761
21.1530,3.6324,5.4939,3.6471,7.529
21.1660,4.4279,4.9777,3.7018,7.621
21.2020,5.2858,4.3803,3.9668,7.929
21.2020,5.2819,3.5606,5.2082,8.228
21.2030,4.2012,2.5162,9.1991,10.421
21.2040,4.3368,0.9025,9.4195,10.409
21.2110,2.8154,-1.3995,10.6389,11.094
21.2210,0.1077,-4.8378,10.8863,11.913
21.2310,-0.7252,-5.5644,8.0309,9.797
21.2400,0.4285,-3.8076,5.3908,6.614
21.2500,0.7708,-2.3218,3.9632,4.657
21.2730,0.2410,-0.5559,3.0221,3.082
21.2740,-1.5006,0.7040,2.3429,2.870
21.2800,-2.1738,1.8758,2.0299,3.516
21.2900,-2.1490,2.4110,4.0163,5.154
21.2990,-4.8659,1.0359,0.3584,4.988
21.3110,-7.0182,-0.2646,-2.9918,7.634
21.3430,-6.4873,0.4985,-5.8581,8.755
21.3460,-4.7099,1.6189,-9.9060,11.087
21.3460,-3.4814,0.3107,-13.6269,14.068
21.3500,-1.4800,-1.0175,-12.4640,12.593
21.3600,0.9297,-2.4860,-8.6803,9.077
21.3720,2.4329,-2.7730,-5.1959,6.372
21.3800,2.4133,-1.6855,-2.8361,4.088
21.3900,1.1056,-0.3448,-2.3268,2.599
21.4010,-0.3972,-0.5453,-1.3930,1.548
21.4350,0.4582,-1.3418,-0.9115,1.686
21.4410,2.6366,-1.9807,-3.5961,4.879
21.4470,2.3679,-2.1736,-8.1253,8.738
21.4550,0.6028,-2.7091,-10.5928,10.950
21.4590,-1.5157,-3.4110,-8.4015,9.193
21.4680,-3.5781,-4.6380,-5.1985,7.832
21.4710,-5.9205,-5.6522,-3.3029,8.827
21.4880,-8.7346,-5.8300,-3.3965,11.037
21.4910,-10.2284,-5.1918,-5.5594,12.747
21.5010,-10.0849,-4.6206,-7.4652,13.371
21.5110,-9.9622,-4.8575,-7.7978,13.552
21.5490,-10.5005,-6.2708,-6.9564,14.070
21.5550,-11.6001,-7.9807,-4.8787,14.902
21.5560,-11.2277,-8.4608,-3.8473,14.576
21.5580,-8.5017,-7.9742,-4.9650,12.670
21.5610,-4.0857,-7.1245,-9.0069,12.189
21.5820,2.2091,-7.3932,-10.1662,12.763
21.5850,5.3118,-7.6279,-2.1657,9.544
21.5940,7.1225,-6.8261,4.4752,10.833
21.6010,5.5910,-6.1073,7.0296,10.862
21.6120,4.7895,-7.1863,6.9783,11.103
21.6270,5.5196,-8.7978,4.6373,11.374
21.6310,6.1758,-10.9882,4.6289,13.428
21.6830,6.1946,-11.3214,1.5527,12.998
21.6890,6.8131,-9.2143,-0.3647,11.465
21.6910,5.7252,-5.4323,0.7340,7.926
21.6930,5.9541,-5.4518,0.9225,8.126
21.6950,4.3032,-1.2156,-0.9096,4.563
21.6970,5.0101,1.5542,-1.9631,5.601
21.7210,4.9426,3.3286,1.7779,6.219
21.7250,4.8489,4.8432,6.2838,9.298
21.7270,3.7922,5.4759,7.5518,10.070
21.7570,2.4969,5.7708,7.6714,9.919
21.7580,2.0431,5.3044,7.3047,9.256
21.7590,0.2042,4.4748,6.4758,7.874
21.7620,0.0698,4.2477,5.2758,6.774
21.7760,0.5437,4.3818,4.6800,6.434
21.8020,1.4280,4.8510,4.7415,6.932
21.8030,2.1548,4.9571,5.7274,7.875
21.8040,3.8635,5.4163,6.1882,9.086
21.8130,5.6126,6.2989,6.5035,10.652
21.8230,6.6222,7.6514,6.8140,12.199
21.8310,7.3141,8.5183,7.4066,13.450
21.8440,6.6361,8.5746,7.8592,13.391
21.8510,5.3786,8.3494,7.4442,12.412
21.8810,4.0860,8.2227,6.2271,11.094
21.8820,2.9748,7.7486,4.6818,9.529
21.8830,1.8278,7.0594,2.1520,7.603
21.8930,1.7465,7.1004,2.1048,7.609
21.9000,-2.9457,3.7287,-7.4685,8.852
21.9140,-6.3437,0.7552,-11.1914,12.886
21.9210,-8.8788,-2.5052,-15.1209,17.713
21.9330,-8.0842,-5.4252,-7.8564,12.510
21.9810,-2.8340,-6.4984,-2.2006,7.423
21.9820,0.0067,-7.3844,-3.3138,8.094
21.9820,1.7652,-8.5666,-5.9153,10.559
21.9830,1.4868,-7.8446,-7.0866,10.676
21.9830,3.3079,-4.3991,-2.5475,6.065
21.9920,11.6470,-3.1498,5.2544,13.160
22.0000,20.9760,-6.3783,2.3586,22.051
22.0270,18.4838,-13.0867,-4.2214,23.038
22.0290,2.3472,-17.5407,-1.1224,17.733
22.0310,-1.6160,-9.8117,14.1396,17.286
22.0610,2.2051,0.0642,12.5869,12.779
22.0620,3.5188,4.0822,4.4641,6.998
22.0620,4.1201,6.5687,1.0800,7.829
22.0730,3.9810,7.0381,1.0206,8.150
22.0800,4.1431,6.8911,1.4005,8.162
22.0920,4.1145,6.3769,2.1471,7.887
22.1000,4.1279,5.7505,2.8563,7.633
22.1120,3.4194,4.3860,3.9552,6.824
22.1200,2.4522,2.9693,6.1539,7.260
22.1470,3.2366,1.1070,6.7551,7.572
22.1480,2.9046,-1.5076,7.6984,8.365
22.1500,0.4804,-5.2191,8.3363,9.847
22.1600,-0.0550,-6.5346,7.9315,10.277
22.1710,1.5088,-4.4193,6.9669,8.387
22.1800,1.4397,-2.4839,5.5031,6.207
22.1910,0.1424,-0.6474,3.6524,3.712
22.1990,-1.1851,0.7372,2.1977,2.603
22.2120,-1.6442,2.3857,3.0221,4.187
22.2200,-2.5846,2.3278,1.5265,3.799
22.2480,-5.3241,0.7092,-6.3541,8.320
22.2490,-6.3112,0.3007,-9.9079,11.751
22.2500,-5.8214,0.7120,-9.3085,11.002
22.2600,-4.1444,1.4991,-6.4984,7.852
22.2700,-1.8429,2.7690,-3.8362,5.077
22.2800,-0.7808,2.0250,-0.9301,2.361
22.2910,0.0713,0.2197,2.0310,2.044
22.2990,0.5654,-1.1696,2.0012,2.386
22.3170,0.5170,-2.3021,-0.5777,2.429
22.3320,0.5736,-2.9984,-3.8371,4.903
22.3350,0.7841,-3.4526,-7.8928,8.651
22.3930,0.9934,-3.1190,-10.4501,10.951
22.3970,1.2213,-2.3069,-11.6246,11.914
22.4000,0.6485,-2.1094,-11.1868,11.402
22.4030,-0.7766,-2.8737,-8.8528,9.340
22.4060,-3.7174,-4.2383,-5.2553,7.707
22.4080,-5.7136,-5.2409,-3.5507,8.528
22.4110,-6.0728,-5.4523,-3.1759,8.757
22.4150,-7.4737,-5.8525,-3.7040,10.190
22.4220,-8.9969,-5.9142,-4.9881,11.866
22.4310,-9.8070,-5.2265,-6.4173,12.833
22.4440,-9.7927,-4.3725,-7.9960,13.377
22.4510,-10.0345,-4.8226,-8.4090,13.952
22.4950,-10.7507,-6.4060,-5.8471,13.813
22.4980,-10.1654,-7.3065,-2.3365,12.735
22.5000,-6.5639,-6.8623,-1.4163,9.601
22.5020,-2.0437,-5.7037,-4.9926,7.851
22.5030,1.2124,-5.7918,-12.2929,13.643
22.5370,4.5292,-6.8127,-11.7126,14.287
22.5420,7.2708,-6.5077,-0.2869,9.762
22.5420,8.2988,-5.4252,3.6381,10.561
22.5430,5.8775,-5.1170,4.8792,9.194
22.5720,4.6356,-7.1027,4.7630,9.727
22.5730,5.0527,-9.8581,2.9051,11.452
22.5730,7.1607,-11.0667,3.7468,13.703
22.5800,9.2979,-9.2442,0.6702,13.128
22.6040,8.9692,-5.7587,0.0432,10.659
22.6090,3.0407,-2.9989,0.6286,4.317
22.6140,-0.2484,-2.1427,2.2204,3.096
22.6450,2.5518,0.1035,-2.4017,3.506
22.6520,0.1366,-0.1461,3.8001,3.805
22.6530,0.3245,-0.1816,3.9628,3.980
22.6580,3.0086,2.7467,4.0719,5.760
22.6620,3.0926,3.8904,5.8103,7.646
22.6740,3.0898,4.6313,6.8962,8.863
22.6810,2.7326,4.9427,6.4825,8.598
22.7150,1.7329,5.2284,5.3534,7.681
22.7160,0.8192,5.3698,4.7232,7.198
22.7160,1.7033,6.1444,4.3229,7.703
22.7200,2.0022,6.2204,5.8749,8.787
22.7310,2.9605,5.9750,6.3471,9.206
22.7470,4.3546,6.1441,6.2663,9.797
22.7510,6.2059,6.9327,6.5442,11.376
22.7870,7.1193,7.8712,6.9094,12.664
22.7880,7.4906,8.5865,7.5127,13.648
22.8020,6.4641,8.5657,7.3242,12.992
22.8070,5.1997,8.9442,6.2675,12.096
22.8100,4.0388,9.1462,5.3455,11.337
22.8130,3.4241,9.2844,3.3345,10.442
22.8220,2.8164,8.8110,0.9037,9.294
22.8310,0.4506,6.6821,-3.4662,7.541
22.8450,-2.9692,3.6992,-7.5088,8.882
22.8510,-5.7014,0.3329,-14.2337,15.337
22.8980,-7.5573,-3.9910,-17.0670,19.087
22.8990,-5.6198,-8.9029,-6.5128,12.380
22.9000,-0.6267,-10.6677,-2.5820,10.994
22.9010,2.4700,-12.2378,-6.1622,13.923
22.9020,2.6400,-13.4461,-11.0931,17.630
22.9180,6.4111,-15.3130,-9.2324,18.996
22.9200,6.3785,-15.2849,-9.3114,19.000
22.9580,12.8140,-23.5060,-7.0015,27.672
22.9620,1.1545,-10.3798,3.0332,10.875
22.9630,4.7504,3.3308,15.8412,16.870
22.9640,5.0811,8.3005,8.8693,13.167
22.9710,4.1244,9.4349,4.9756,11.436
22.9910,3.2858,9.6010,2.5499,10.463
22.9920,3.6122,9.3244,1.4312,10.102
23.0310,5.8885,8.1964,1.7642,10.245
23.0320,8.1984,6.8191,2.9735,11.070
23.0330,7.8047,5.0704,7.0366,11.668
23.0330,8.5701,3.6016,8.9059,12.874
23.0450,6.9100,1.3654,9.2290,11.610
23.0520,4.5419,-0.6808,10.2036,11.190
23.0660,3.0986,-2.7355,10.5038,11.288
23.0710,3.8690,-2.5827,9.4708,10.552
23.1020,4.2028,-1.8532,7.0235,8.392
23.1030,3.8811,-2.0891,4.6206,6.386
23.1040,2.1733,-2.6068,2.5891,4.269
23.1110,0.2516,-2.4808,1.9492,3.165
23.1200,-1.4547,-1.5864,2.2051,3.081
23.1320,-1.5989,-0.8879,1.0988,2.134
23.1630,-1.9006,0.0021,4.4970,4.882
23.1640,-4.3020,-1.4521,1.0660,4.664
23.1650,-9.2556,-3.3804,-7.2492,12.233
23.1700,-11.1616,-2.9989,-10.5615,15.656
23.1800,-8.6930,-0.4181,-10.8011,13.871
23.2090,-5.5540,1.8220,-9.8043,11.414
23.2100,-3.3480,1.9708,-7.9707,8.867
23.2390,-1.9043,0.8520,-4.5248,4.983
23.2400,0.4015,-0.3973,-1.2876,1.406
23.2410,1.8379,-1.2750,-0.5453,2.302
23.2410,1.6884,-1.5234,-1.6850,2.830
23.2500,0.7276,-1.2223,-2.9260,3.253
23.2630,1.4464,-0.8101,-4.1198,4.441
23.2770,2.5038,-1.1253,-5.7312,6.355
23.2920,1.9318,-1.9298,-8.0362,8.487
23.2970,-0.3495,-2.9175,-9.8381,10.267
23.3050,-2.1962,-3.7030,-8.8382,9.831
23.3120,-3.7365,-4.2982,-5.2055,7.716
23.3220,-5.3462,-4.4671,-1.8796,7.216
23.3340,-6.8861,-4.4519,-1.9837,8.436
23.3560,-7.8039,-4.7168,-4.2989,10.081
23.3630,-8.4026,-5.1497,-6.8597,12.007
23.3690,-8.7681,-5.3961,-7.8249,12.932
23.3730,-8.6888,-5.2948,-7.5009,12.641
23.4230,-9.3084,-5.8898,-6.4107,12.745
23.4310,-10.9606,-7.7750,-4.3773,14.133
23.4340,-10.2974,-8.0996,-2.8543,13.408
23.4370,-6.4243,-6.7916,-4.4332,10.347
23.4400,-1.5371,-5.3017,-7.9302,9.662
23.4440,2.9762,-5.3699,-12.6131,14.028
23.4470,5.9548,-5.9446,-10.9293,13.793
23.4550,7.8024,-5.9677,-0.9342,9.867
23.4650,7.8860,-5.7342,2.5173,10.070
23.4700,4.6050,-5.7382,4.0474,8.397
23.5130,3.3948,-7.2485,3.9911,8.944
23.5140,4.7962,-9.1349,2.9130,10.721
23.5150,6.9534,-9.9635,2.3882,12.382
23.5160,8.6760,-9.0014,0.2025,12.504
23.5210,7.7006,-5.7573,0.4309,9.625
23.5310,3.5413,-3.7025,3.7421,6.344
23.5450,0.0853,-2.3859,3.5864,4.308
23.5510,3.1752,0.0490,-0.3777,3.198
23.5620,-0.1110,-0.1199,2.2374,2.243
23.5720,-0.1850,-0.0521,4.2145,4.219
23.5820,1.7938,1.4429,3.6118,4.283
23.6190,2.3707,3.1546,4.5531,6.025
23.6200,2.5389,4.2346,6.2346,7.953
23.6210,1.7954,4.7746,6.1877,8.019
23.6210,1.2145,5.4908,5.6762,7.990
23.6320,0.8312,5.9010,5.2073,7.914
23.6420,0.4607,5.7755,6.0218,8.357
23.6550,1.3268,5.9734,6.1263,8.659
23.6600,2.7297,6.4802,6.1552,9.345
23.7030,4.5847,7.1976,6.5300,10.745
23.7040,6.2978,7.8751,7.1316,12.351
23.7040,6.9626,8.2624,7.5216,13.165
23.7050,6.6015,8.5704,7.8515,13.367
23.7130,5.7628,8.6371,7.5484,12.837
23.7220,5.0110,8.8438,7.0723,12.383
23.7320,3.5203,8.8372,5.9818,11.237
23.7400,2.8040,8.6393,3.4922,9.731
23.7680,2.2283,8.0539,0.6351,8.381
23.7690,0.0709,6.3046,-4.7513,7.895
23.7710,-2.9923,3.7030,-9.4921,10.619
23.7860,-5.4397,0.5975,-14.5408,15.536
23.7980,-7.0085,-2.9644,-13.9223,15.866
23.8000,-5.1419,-6.6133,-4.6308,9.572
23.8170,-0.6913,-7.9587,-1.2391,8.084
23.8210,1.2148,-9.2817,-4.1289,10.231
23.8330,0.9392,-10.1619,-9.3780,13.860
23.8400,2.8804,-11.7072,-11.8601,16.912
23.8800,14.8124,-18.6643,-3.1215,24.031
23.8820,21.9090,-26.7017,-8.3732,35.540
23.8820,3.2093,-18.3615,-7.2507,20.000
23.8830,1.1891,-2.0527,10.3914,10.659
23.9300,5.3159,8.9398,13.2838,16.871
23.9310,4.2916,10.4530,7.0926,13.341
23.9320,3.2149,10.5297,2.7869,11.357
23.9320,3.1275,10.4044,1.1372,10.924
23.9330,4.8599,8.9525,1.2461,10.262
23.9800,6.6823,7.4347,3.0745,10.459
23.9880,7.9179,5.7902,7.6126,12.417
23.9890,8.4983,4.1084,11.4076,14.807
23.9910,5.7718,1.1279,13.1483,14.404
23.9920,3.8909,-0.9473,13.9460,14.510
23.9930,2.7356,-3.1949,14.4110,15.012
24.0000,2.0744,-4.4825,13.8755,14.728
24.0110,3.1518,-4.1229,9.2677,10.622
24.0200,3.8668,-3.6923,4.5409,7.015
24.0310,3.2051,-3.5753,1.9482,5.182
24.0400,1.4683,-3.3217,0.8208,3.723
24.0660,-0.1648,-2.6147,0.3590,2.644
24.0670,-1.5273,-1.6145,0.3776,2.254
24.0700,-1.5193,-0.1351,6.1300,6.317
24.0800,-3.2758,-0.9106,-4.2511,5.444
24.0900,-8.5203,-3.1632,-12.0443,15.089
24.1010,-10.0937,-2.0387,-11.8838,15.725
24.1160,-8.8545,0.0569,-9.0743,12.679
24.1200,-5.3295,3.1521,-5.7771,8.468
24.1550,-3.5412,3.6615,-2.8359,5.830
24.1560,-1.6400,2.3889,0.2763,2.911
24.1570,0.7716,1.3236,0.9889,1.824
24.1630,2.5263,0.2141,-0.5330,2.591
24.2150,2.6297,-0.9597,-2.6762,3.873
24.2300,2.6823,-1.8015,-4.8669,5.842
24.2320,2.7304,-2.0864,-6.2440,7.127
24.2340,2.2749,-2.3606,-6.6900,7.450
24.2360,1.7947,-2.2583,-6.5014,7.113
24.2390,1.2425,-2.2177,-7.3014,7.731
24.2410,-0.3328,-2.5232,-7.5014,7.921
24.2430,-2.1584,-3.2844,-6.6300,7.707
24.2520,-3.9334,-4.1390,-5.3366,7.815
24.2620,-5.1117,-4.9299,-3.2397,7.806
24.2760,-6.3370,-5.6772,-2.5174,8.873
24.2810,-8.2517,-6.0475,-3.0601,10.678
24.2910,-9.5711,-5.6367,-4.6632,12.047
24.3010,-10.2921,-4.8143,-6.3359,13.010
24.3570,-10.4861,-4.3984,-7.3757,13.554
24.3640,-10.8222,-4.9127,-8.7049,14.732
24.3660,-11.2769,-5.8785,-7.4564,14.742
24.3680,-9.8541,-6.6233,-3.8602,12.485
24.3700,-5.8298,-5.9755,-2.8153,8.810
24.3720,-0.3550,-4.7093,-7.8303,9.144
24.3730,3.0354,-5.2101,-12.9335,14.270
24.3860,6.6809,-6.7265,-7.1153,11.854
24.3910,8.2150,-7.1019,1.6926,10.990
24.4310,7.1179,-6.2663,5.1362,10.785
24.4310,5.2110,-6.4455,5.3938,9.889
24.4320,4.8576,-7.9388,3.7473,10.033
24.4330,7.1549,-9.8950,1.5979,12.315
24.4400,8.8714,-10.4759,-2.1383,13.893
24.4510,8.6072,-8.1860,-2.5142,12.141
24.4870,8.4573,-4.5379,-0.7338,9.626
24.4940,8.6483,-4.5674,-0.4961,9.793
24.4950,3.5305,0.0267,3.1274,4.717
24.4970,1.4916,0.3081,7.6322,7.783
24.5260,0.0943,1.4317,3.5616,3.840
24.5320,0.9646,2.7773,2.2816,3.721
24.5370,2.2645,3.5057,4.1345,5.875
24.5400,3.7506,4.5377,5.6481,8.158
24.5440,3.4036,4.8530,7.0859,9.238
24.5510,1.9598,5.0154,5.9324,8.012
24.5640,-0.3825,4.5244,4.7565,6.576
24.5710,-1.3285,3.8973,3.7440,5.565
24.6060,-0.7919,3.5371,4.1485,5.509
24.6150,1.3799,3.8579,5.1003,6.542
24.6170,4.3407,5.5074,6.1311,9.315
24.6190,6.7965,7.3978,7.0009,12.245
24.6210,7.5962,8.6163,7.5168,13.727
24.6320,7.0623,9.1710,8.1887,14.179
24.6430,6.9244,9.5616,8.3529,14.462
24.6540,6.3033,9.6645,7.7380,13.893
24.7160,5.1492,9.4659,6.8367,12.762
24.7220,4.2102,9.3563,4.7134,11.291
24.7250,3.8317,9.2483,2.3012,10.272
24.7280,1.5050,7.8052,-2.8800,8.455
24.7300,-1.9334,5.3730,-7.1242,9.130
24.7320,-5.4730,1.8045,-10.7261,12.176
24.7350,-7.3993,-1.8382,-14.1976,16.115
24.7370,-6.4258,-5.3207,-10.4847,13.399
24.7460,-0.0278,-7.4862,-5.3655,9.210
24.7510,1.9046,-9.2944,-4.6695,10.574
24.7660,1.4024,-9.7467,-6.6376,11.875
24.7710,1.3122,-8.3830,-7.6131,11.400
24.7830,6.4902,-8.1370,-0.9488,10.451
24.8140,15.3672,-12.4618,3.7569,20.139
24.8150,18.8044,-23.0341,-3.7095,29.966
24.8160,6.1151,-23.5490,-4.6677,24.774
24.8200,4.4158,-4.2464,9.7965,11.554
24.8320,5.8913,5.6452,12.7026,15.097
24.8400,4.3322,8.2609,7.8894,12.217
24.8550,3.0924,8.8519,4.2259,10.285
24.8620,2.5308,8.7555,1.0613,9.176
24.9200,2.5224,7.9615,-0.5270,8.368
24.9280,4.0495,6.3374,-0.3564,7.529
24.9310,5.8454,5.4212,1.1677,8.057
24.9350,7.3740,4.2970,2.7834,8.977
24.9380,7.5660,2.6992,4.2943,9.109
24.9390,5.4766,0.4724,7.2708,9.115
24.9390,5.2149,0.4763,7.1934,8.898
24.9400,1.5550,-4.0618,13.0822,13.786
24.9520,1.4903,-4.2018,11.7870,12.602
24.9680,1.7215,-3.5044,8.9511,9.766
24.9720,0.1682,-3.2201,7.0643,7.765
25.0080,-1.1394,-2.4492,5.2367,5.892
25.0100,-1.1869,-1.2467,3.3900,3.802
25.0100,-1.5221,0.1928,1.4522,2.113
25.0180,-1.7997,0.9954,0.1764,2.064
25.0200,-1.8896,1.0658,2.8344,3.569
25.0350,-5.3931,-1.5675,-2.7688,6.262
25.0390,-7.7976,-2.3038,-7.5683,11.108
25.0700,-8.1890,-1.4305,-9.1079,12.331
25.0710,-6.3729,0.0587,-8.4665,10.597
25.0720,-2.6634,1.6966,-6.8800,7.570
25.0800,-0.2752,1.7808,-5.8246,6.097
25.0910,1.4477,0.9858,-3.9151,4.289
25.1000,2.0510,0.0763,-1.8105,2.737
25.1160,1.6216,-0.5196,-1.7923,2.472
25.1240,0.7232,-0.9025,-3.2035,3.406
25.1570,0.2515,-1.0289,-5.3151,5.420
25.1620,0.0377,-1.6952,-7.5046,7.694
25.1650,-0.5012,-2.9191,-9.0177,9.492
25.1670,-0.5213,-3.2941,-9.7872,10.340
25.1850,-1.0644,-3.1384,-8.9601,9.553
25.1890,-2.4454,-3.2581,-6.8880,8.002
25.1920,-4.5701,-3.9024,-3.8709,7.148
25.2000,-6.0101,-4.3839,-1.2388,7.542
25.2140,-7.6515,-5.0702,-0.4915,9.192
25.2200,-8.8275,-5.4674,-2.1882,10.612
25.2660,-9.3592,-5.1437,-5.1688,11.865
25.2750,-9.6330,-4.6482,-7.7983,13.237
25.2830,-10.6140,-5.1895,-9.0027,14.854
25.2890,-12.2525,-6.5989,-6.9564,15.558
25.2960,-11.9249,-7.3095,-2.5443,14.216
25.2980,-6.9233,-5.7528,-1.8977,9.199
25.2990,-0.3205,-4.0076,-7.2311,8.274
25.3000,2.8505,-5.3993,-11.4264,12.955
25.3240,5.6461,-7.0837,-9.9956,13.490
25.3250,7.8707,-8.1056,-0.1931,11.300
25.3930,7.4949,-7.3949,2.1172,10.740
25.4130,6.0228,-6.6308,2.9336,9.426
25.4190,5.2071,-7.7021,4.1954,10.200
25.4250,4.6946,-9.6532,3.4368,11.271
25.4250,6.2298,-11.1399,0.9443,12.798
25.4270,7.0099,-9.5794,-2.6411,12.161
25.4280,7.6750,-5.8454,-1.8834,9.830
25.4280,4.2866,-2.4851,0.4118,4.972
25.4290,2.4779,-0.4127,3.4784,4.291
25.4300,2.3566,0.9737,3.4286,4.273
25.4310,-0.2514,0.8746,6.8445,6.905
25.4410,0.6441,2.4766,3.3324,4.202
25.4540,1.4875,3.3874,3.8328,5.327
25.4600,2.1857,3.7335,5.1522,6.728
25.4990,2.9185,4.0174,6.5956,8.256
25.5050,2.5602,4.2035,6.4146,8.085
25.5150,0.4807,4.2150,5.2296,6.734
25.5180,-0.6093,4.5825,4.1668,6.224
25.5210,-0.2432,4.7304,4.8657,6.790
25.5230,0.8975,4.8491,5.6214,7.478
25.5320,2.5852,5.1825,6.0790,8.396
25.5400,4.7103,6.0177,6.6884,10.155
25.5540,6.8980,6.9511,7.2311,12.173
25.6100,7.4405,7.9931,7.5871,13.297
25.6250,7.7062,8.5882,8.1128,14.105
25.6300,7.2122,9.0402,7.9481,14.033
25.6350,6.0267,9.0008,6.9312,12.860
25.6380,4.5683,8.7377,5.0233,11.066
25.6420,4.3311,8.6814,2.7158,10.075
25.6450,3.4861,8.2264,0.2686,8.939
25.6470,0.8092,6.0695,-4.6970,7.717
25.6480,-3.1278,2.9909,-8.5033,9.541
25.6510,-5.4442,0.1196,-14.1221,15.136
25.6600,-7.0679,-2.8435,-14.2748,16.181
25.6720,-4.7189,-6.1188,-5.6564,9.576
25.7220,-0.5633,-8.2893,-2.2128,8.598
25.7290,1.7209,-10.4132,-5.2337,11.781
25.7340,1.7430,-11.2096,-11.4160,16.094
25.7370,4.1319,-11.5798,-12.9081,17.827
25.7410,12.4274,-14.1673,-1.0028,18.872
25.7440,20.5307,-19.4511,-0.9459,28.298
25.7490,11.1675,-14.1945,-0.3108,18.064
25.7530,3.4038,-1.7523,12.6049,13.174
25.7600,1.8972,4.3723,11.0350,12.020
25.7710,1.1723,6.2310,8.0303,10.232
25.7830,1.7486,7.3154,4.4684,8.749
25.8380,1.8160,7.1144,1.9228,7.590
25.8430,2.0190,6.3998,1.8837,6.970
25.8440,2.8482,5.6526,3.3694,7.171
25.8450,4.4929,5.0460,4.4848,8.109
25.8460,5.0341,3.6400,8.3341,10.395
25.8470,4.8657,1.9759,9.8177,11.134
25.8500,4.2975,-0.0940,10.1975,11.066
25.8600,1.9100,-2.9838,9.8352,10.454
25.8770,-3.4799,-8.5583,9.0584,12.939
25.9120,-3.7461,-8.6856,8.1854,12.509
25.9140,1.2353,-3.9777,7.5592,8.631
25.9150,1.8813,-1.1684,6.1032,6.493
25.9170,0.9240,0.3951,3.9339,4.060
25.9200,-0.3663,1.8113,2.1794,2.857
25.9320,-1.0716,3.0314,1.6997,3.637
25.9400,-1.1314,3.0248,1.3138,3.486
25.9530,-1.8868,2.5537,-0.4759,3.211
25.9600,-2.8061,1.1699,-3.7577,4.834
25.9840,-2.8002,0.5879,-6.5591,7.156
25.9850,-1.3131,0.7186,-8.7845,8.911
25.9900,0.2516,0.7977,-10.0030,10.038
26.0000,1.2906,0.4691,-9.1289,9.232
26.0100,1.8034,-0.0837,-6.7504,6.988
26.0200,1.6505,-0.6693,-3.8252,4.219
26.0340,0.8477,-1.2836,-2.2666,2.739
26.0500,-0.5276,-1.9086,-1.6457,2.575
26.0560,-0.6282,-1.9406,-1.6729,2.638
26.0920,-2.3532,-3.3276,-3.2464,5.211
26.0930,-2.8849,-3.3675,-7.1585,8.421
26.0940,-2.7900,-2.3540,-11.6680,12.226
26.0950,-1.9273,-1.9500,-12.4780,12.776
26.1020,-2.0310,-2.6315,-8.7387,9.350
26.1240,-3.1844,-3.5089,-3.3560,5.807
26.1310,-4.2512,-4.0830,0.6331,5.928
26.1370,-6.9948,-4.4510,0.9863,8.349
26.1430,-10.3776,-4.7988,-2.5386,11.712
26.1730,-12.2127,-4.5951,-6.4538,14.557
26.1860,-12.1467,-4.2990,-8.7117,15.554
26.1900,-12.1320,-5.6213,-7.8076,15.484
26.1940,-11.4249,-7.7650,-4.9851,14.686
26.1970,-7.3362,-8.9077,-2.6764,11.846
26.2340,-3.2904,-8.1222,-4.4795,9.842
26.2350,1.5284,-6.5252,-10.3677,12.345
26.2360,4.6680,-7.0658,-14.0537,16.408
26.2370,7.7889,-7.1433,-8.5330,13.583
26.2860,8.0391,-7.0598,-8.2421,13.506
26.3010,8.2579,-5.4763,4.3023,10.802
26.3060,5.6798,-6.3450,4.3691,9.571
26.3100,4.5710,-8.6580,3.8152,10.508
26.3140,5.7553,-9.9434,2.4762,11.753
26.3180,7.4217,-9.1819,0.3825,11.812
26.3220,7.9295,-6.0978,-2.6048,10.337
26.3240,6.2188,-2.4182,-2.6077,7.164
26.3270,2.8408,-1.0580,-1.6961,3.474
26.3350,0.5284,-0.3777,3.2414,3.306
26.3400,0.6134,0.0840,6.5916,6.621
26.3520,-0.6782,-0.4451,9.0990,9.135
26.3600,-0.6302,0.4614,3.5875,3.672
26.4390,1.0587,2.1193,2.6001,3.518
26.4450,2.1995,2.7237,4.8560,5.986
26.4490,2.6551,3.4825,5.9525,7.390
26.4530,2.0789,4.0793,5.6340,7.260
26.4550,0.8226,4.6791,5.0737,6.951
26.4620,0.6393,5.2041,4.5569,6.947
26.4660,1.5788,5.8610,4.3109,7.445
26.4700,1.7396,6.0325,5.5490,8.379
26.4720,2.4757,6.0701,6.0407,8.914
26.4740,3.9528,6.4783,6.6286,10.076
26.4760,5.7475,7.2346,7.5685,11.944
26.4880,6.4345,7.9340,7.5185,12.684
26.4910,6.8307,8.4553,7.7565,13.353
26.5020,5.4942,8.0411,8.0851,12.658
26.5110,4.2182,7.5290,7.3718,11.350
26.5480,2.7727,7.1458,4.5465,8.912
26.5550,2.3654,7.2719,1.8256,7.862
26.5560,1.4026,6.9129,-2.8875,7.622
26.5580,-1.7573,4.6431,-9.0205,10.296
26.5610,-6.0851,0.7087,-14.2159,15.480
26.5720,-8.6039,-2.1667,-14.1323,16.687
26.5900,-9.0016,-4.3993,-7.8927,12.755
26.5970,-4.5202,-4.2571,-4.9399,7.935
26.6430,-3.0906,-5.0193,-4.4444,7.382
26.6440,-2.2511,-5.5717,-4.2550,7.363
26.6450,0.0853,-3.6381,-2.4137,4.367
26.6450,2.2567,-0.7537,1.8715,3.027
26.6460,9.2445,-0.2646,4.8010,10.420
26.6560,22.5923,-5.5832,-2.9999,23.464
26.6690,24.9363,-21.2185,-10.4120,34.358
26.6740,3.7961,-23.4500,-8.7492,25.315
26.6940,-0.6605,-8.9221,13.2787,16.011
26.6950,3.4535,1.6199,13.2882,13.825
26.7430,4.0812,5.7000,7.3562,10.162
26.7430,3.6154,6.6414,3.5709,8.362
26.7440,3.5357,6.3256,1.2080,7.347
26.7450,4.3368,5.3063,0.6381,6.883
26.7450,6.0377,4.4741,1.6381,7.691
26.7830,6.7921,3.7684,2.6480,8.206
26.7860,5.8982,3.0472,3.9346,7.717
26.7870,4.6012,2.2318,4.9831,7.140
26.7970,2.6821,1.0176,7.3063,7.849
26.7980,1.3573,-0.0662,11.3149,11.396
26.8010,1.4868,-0.8925,10.0633,10.212
26.8100,2.3973,-0.7847,8.7092,9.067
26.8200,1.1360,-1.7840,7.7501,8.033
26.8740,-1.2628,-2.6497,6.7790,7.387
26.8760,-1.7624,-2.5137,5.1012,5.954
26.8760,-1.3143,-1.4904,3.0209,3.616
26.8770,-1.5232,-0.4693,1.1871,1.987
26.8780,-1.7935,0.3945,-0.2136,1.849
26.9180,-2.6488,0.4821,-0.3651,2.717
26.9210,-3.0922,0.2100,1.4578,3.425
26.9220,-4.9684,-0.9198,-2.4957,5.636
26.9220,-6.2306,-1.4352,-6.1900,8.899
26.9230,-5.2964,-0.9636,-8.2742,9.871
26.9310,-2.5856,-0.0223,-10.4309,10.747
26.9400,-0.6421,0.0161,-11.0198,11.038
26.9550,0.3050,-0.7392,-8.4379,8.476
26.9630,0.3439,-1.2496,-4.7071,4.882
27.0220,-0.4498,-1.5125,-1.8815,2.456
27.0350,-1.1123,-1.5882,-1.4882,2.444
27.0400,-0.8307,-2.0078,-4.4013,4.908
27.0440,-1.6326,-2.5976,-9.5123,9.995
27.0490,-2.5247,-2.9831,-13.8650,14.405
27.0540,-3.1152,-3.3858,-12.8103,13.611
27.0580,-3.4535,-4.1561,-7.5187,9.259
27.0630,-4.4736,-4.7031,-2.7550,7.051
27.0660,-6.0715,-4.6348,-1.0124,7.705
27.0700,-7.5940,-4.7621,-1.7746,9.138
27.0740,-9.0705,-5.0245,-4.6683,11.372
27.0850,-9.7580,-4.7038,-6.8021,12.791
27.0910,-10.1652,-4.1631,-8.0136,13.597
27.1040,-11.3042,-4.7049,-7.2894,14.250
27.1110,-12.5673,-6.4214,-5.1530,15.024
27.1680,-11.4818,-7.9707,-2.6459,14.226
27.1740,-7.5229,-7.4389,-2.7568,10.933
27.1750,-1.7188,-5.9321,-8.4578,10.473
27.1770,3.3182,-6.4325,-14.1543,15.898
27.1800,6.6717,-7.6311,-8.9302,13.509
27.1830,8.2138,-8.4363,0.4846,11.784
27.1860,7.1488,-7.1647,2.7870,10.498
27.2050,5.5068,-7.5719,3.6470,10.048
27.2080,5.1282,-9.3697,3.0645,11.112
27.2120,5.9442,-11.3707,1.3060,12.897
27.2570,8.7293,-11.9972,-0.5055,14.845
27.2580,10.0572,-8.9710,0.3178,13.481
27.2590,8.9770,-4.0709,0.8010,9.889
27.2600,4.0629,-1.5055,1.2830,4.519
27.2610,1.2301,0.2459,2.8667,3.129
27.3050,0.1663,0.6969,4.8767,4.929
27.3120,-1.1853,0.8763,4.7075,4.933
27.3140,-1.2264,1.7197,2.5436,3.306
27.3210,0.4140,2.5156,3.6023,4.413
27.3230,2.5677,3.6502,5.1534,6.817
27.3260,3.1120,4.6737,5.9375,8.172
27.3450,1.6219,5.1451,6.3961,8.367
27.3460,0.3154,5.3646,5.6110,7.769
27.3860,-0.2964,5.2692,5.0240,7.286
27.3870,0.0399,5.3683,4.8768,7.253
27.3880,1.4271,5.8165,5.2817,7.985
27.3880,3.0634,6.6532,6.2420,9.623
27.3910,4.4408,7.5411,6.7267,11.038
27.4060,5.5231,8.1201,7.1554,12.151
27.4110,6.2321,8.7221,7.1529,12.887
27.4600,6.8232,9.2205,7.2221,13.555
27.4600,5.2738,9.1744,6.9024,12.634
27.4610,4.2765,8.9690,6.3445,11.789
27.4620,2.8017,8.7327,4.8000,10.351
27.4620,2.5872,8.3559,2.8641,9.204
27.4710,2.2042,7.3772,-0.9326,7.756
27.4840,-0.8593,4.5067,-6.5275,7.979
27.4990,-4.1009,0.5372,-11.7147,12.423
27.5040,-6.5850,-2.9779,-17.3407,18.786
27.5120,-6.8097,-6.6968,-11.8645,15.231
27.5470,-3.5576,-8.1740,-4.0627,9.797
27.5480,-0.3281,-8.9227,-3.4234,9.563
27.5480,-0.7773,-9.5272,-7.0525,11.879
27.5610,-0.4412,-8.6954,-12.0367,14.856
27.5610,2.8731,-8.3647,-9.7179,13.140
27.5720,14.0426,-10.1303,0.5942,17.325
27.5800,19.3970,-15.5167,0.4791,24.844
27.6180,8.3699,-13.9765,3.8163,16.732
27.6250,4.6565,-2.5228,12.1377,13.243
27.6270,5.3768,5.6334,9.7686,12.493
27.6290,4.2748,7.6722,5.0836,10.148
27.6320,3.7755,8.0307,2.8659,9.325
27.6590,3.8601,7.2379,1.7664,8.391
27.6600,5.1352,5.4245,1.7164,7.664
27.6610,6.5091,3.7462,2.2837,7.850
27.7190,7.3029,2.2012,3.1795,8.264
27.7210,7.1162,1.2341,3.2347,7.914
27.7230,6.0505,0.2735,3.5394,7.015
27.7240,4.9212,-0.5204,4.0309,6.383
27.7250,4.0038,-1.0827,4.3531,6.013
27.7260,2.5597,-1.3761,5.7205,6.416
27.7310,2.1353,-1.0280,6.9653,7.357
27.7400,2.0446,-0.9534,7.1960,7.541
27.7880,0.7429,-1.3478,6.4339,6.615
27.7890,-1.3487,-2.0371,5.9373,6.420
27.7900,-2.6645,-2.1550,4.8959,5.976
27.8150,-3.1367,-1.2993,3.9471,5.206
27.8160,-3.5464,-0.6080,2.9795,4.672
27.8170,-3.2990,-0.0635,1.7579,3.739
27.8180,-3.6591,-0.0680,4.1387,5.525
27.8340,-6.2713,-1.5553,0.6816,6.497
27.8370,-8.7444,-2.3109,-4.4381,10.075
27.8400,-9.2638,-1.7469,-7.1841,11.852
27.8510,-7.2192,-0.2473,-8.2502,10.966
27.8600,-3.6866,1.6992,-8.6577,9.562
27.8710,-1.7748,1.9627,-8.5249,8.926
27.8800,-1.1783,0.8466,-6.2341,6.401
27.9360,-1.0327,-0.5242,-3.0547,3.267
27.9540,-0.6551,-1.4563,-1.3148,2.068
27.9620,-0.4279,-1.7330,-1.9638,2.654
27.9690,-0.1770,-1.6755,-4.7951,5.082
27.9740,-0.3360,-2.6003,-9.0465,9.419
27.9790,-1.1032,-3.7471,-13.0266,13.600
27.9840,-1.8427,-4.1406,-13.5521,14.290
27.9880,-2.8773,-3.9245,-10.4514,11.529
27.9920,-3.7521,-4.0255,-7.1031,8.985
27.9950,-5.3484,-4.6432,-3.8584,8.065
27.9980,-7.2938,-5.3740,-4.0037,9.905
28.0020,-8.9783,-5.8480,-5.9371,12.250
28.0110,-9.9049,-5.5093,-6.2425,12.939
28.0220,-10.0906,-5.1431,-6.5115,13.064
28.0310,-11.2576,-5.6270,-7.2124,14.506
28.0810,-12.6805,-7.0258,-6.8269,16.024
28.0870,-12.2803,-7.6114,-4.8091,15.227
28.0890,-9.3301,-7.2525,-3.1576,12.232
28.0920,-4.3601,-7.3110,-3.7578,9.305
28.0940,1.7243,-7.8794,-8.8899,12.004
28.0960,6.7382,-7.8235,-8.6126,13.446
28.1270,7.1362,-8.0898,-1.6116,10.907
28.1300,6.4333,-7.5206,2.0821,10.113
28.1350,5.7629,-8.3269,4.4157,11.047
28.1370,5.4689,-10.5483,3.6133,12.419
28.1750,6.2203,-12.5878,2.2342,14.218
28.1760,8.2703,-12.8470,0.3177,15.282
28.1770,10.1154,-9.3055,-0.9787,13.779
28.1790,8.8709,-3.7818,2.2534,9.903
28.1810,4.5862,-0.7186,1.6416,4.924
28.2280,3.4416,1.1649,2.4328,4.373
28.2320,2.3613,2.1855,-0.1115,3.219
28.2340,-0.8970,2.0663,4.4756,5.011
28.2360,0.0931,2.3392,3.0369,3.834
28.2390,2.4942,3.8717,2.2153,5.111
28.2420,2.7287,4.3543,4.7860,7.022
28.2770,3.2107,4.8435,6.1964,8.495
28.2790,2.7715,4.9252,6.2863,8.453
28.2830,1.2988,4.9646,5.6897,7.662
28.2880,0.6825,5.1009,4.9952,7.172
28.3200,1.2543,5.4156,4.9108,7.417
28.3210,2.0302,6.0074,5.5069,8.399
28.3210,2.6839,6.2695,6.0347,9.106
28.3220,4.6553,7.0523,6.5005,10.661
28.3310,5.9392,8.0888,6.8688,12.161
28.3410,7.0265,9.4688,7.1703,13.800
28.3920,7.0209,9.9516,7.8773,14.504
28.3950,6.1752,9.9379,7.6807,13.996
28.3960,4.9197,9.9786,6.6872,12.981
28.3980,3.4153,10.0261,4.4395,11.485
28.4040,3.0611,10.0416,1.8846,10.666
28.4070,0.8578,8.2324,-2.6361,8.687
28.4400,-2.7927,5.1750,-7.0407,9.173
28.4470,-6.1119,1.8035,-10.6309,12.395
28.4530,-7.5972,-0.9644,-15.1400,16.967
28.4560,-7.8607,-5.6093,-9.5613,13.589
28.4590,-2.8228,-8.3072,-2.7370,9.191
28.4620,1.2414,-10.7136,-3.4698,11.330
28.4770,0.6301,-12.3102,-6.6725,14.016
28.4800,0.6206,-10.4389,-9.7812,14.319
28.5340,5.8651,-9.5952,-4.5043,12.114
28.5400,16.2737,-14.3328,0.4877,21.691
28.5430,20.8224,-19.2760,-4.4770,28.726
28.5490,6.6566,-14.3109,-2.9157,16.050
28.5540,3.0312,-2.4457,7.8626,8.774
28.5590,5.4096,5.8519,10.5672,13.235
28.5630,4.1151,6.9598,7.3238,10.909
28.5650,2.9664,6.9868,4.2570,8.703
28.5970,2.7367,7.0263,2.5178,7.950
28.5970,3.1123,6.5387,1.0922,7.323
28.5980,3.9646,5.1370,1.1161,6.584
28.6460,4.9694,4.1589,2.2114,6.847
28.6510,5.6711,3.2447,4.1616,7.747
28.6510,3.9687,1.9192,7.6913,8.865
28.6520,3.6728,0.0178,9.5331,10.216
28.6530,1.9555,-2.8686,11.7759,12.277
28.6540,-1.5934,-6.4062,14.4457,15.883
28.6820,-1.8566,-6.5106,11.8974,13.689
28.6830,-0.4632,-4.1354,8.2294,9.222
28.6840,0.1766,-2.5387,5.8884,6.415
28.6910,-1.1520,-0.7344,3.5986,3.849
28.6990,-2.1651,0.8297,2.0432,3.090
28.7270,-2.8745,2.1294,2.6346,4.443
28.7280,-3.4243,2.7785,4.3298,6.180
28.7300,-5.0677,1.0738,-2.3297,5.680
28.7390,-5.6278,-0.0177,-7.6113,9.466
28.7570,-5.1198,0.1668,-9.8508,11.103
28.7600,-3.5430,1.3476,-10.2859,10.962
28.7950,-0.9950,1.9648,-9.8538,10.097
28.8080,-0.0398,0.6731,-7.5440,7.574
28.8090,0.9200,-0.7808,-3.6363,3.831
28.8100,2.0771,-1.6513,-2.1453,3.412
28.8110,2.2798,-2.1984,-3.1624,4.476
28.8230,1.2243,-2.1420,-4.6692,5.281
28.8310,-0.3972,-1.6048,-5.6570,5.894
28.8840,-2.2990,-1.5404,-5.5922,6.239
28.8950,-2.9844,-2.1824,-5.6131,6.721
28.8970,-3.4383,-2.7742,-7.1152,8.375
28.9000,-4.7237,-2.9577,-8.1243,9.852
28.9050,-5.8078,-3.4280,-7.6245,10.179
28.9080,-6.3135,-4.1087,-5.1288,9.113
28.9110,-6.2434,-4.6037,-2.6466,8.196
28.9140,-6.3109,-5.3364,-2.1433,8.538
28.9210,-7.6279,-5.9774,-3.6933,10.371
28.9320,-8.0429,-5.8109,-6.7243,11.986
28.9400,-8.5874,-6.0904,-8.3555,13.441
28.9940,-9.8007,-7.6930,-6.9150,14.250
28.9990,-10.0727,-8.6299,-4.5512,14.023
29.0020,-8.7780,-7.7235,-2.6170,11.981
29.0040,-7.6121,-7.0866,-3.1665,10.872
29.0050,-5.6362,-6.1587,-6.5942,10.639
29.0070,-2.2025,-5.2189,-11.4699,12.792
29.0130,1.6251,-5.4391,-12.7309,13.939
29.0230,5.0867,-6.3963,-1.9810,8.409
29.0310,6.2664,-6.7063,3.4654,9.811
29.0400,5.2364,-6.5982,6.4761,10.625
29.0510,4.0074,-7.6049,7.2970,11.276
29.0620,4.9726,-9.3450,4.0143,11.321
29.1370,5.2227,-10.3266,2.6925,11.881
29.1460,6.0199,-9.7334,3.8328,12.069
29.1480,5.1694,-6.8098,7.5954,11.436
29.1490,2.0866,-3.4742,2.9560,5.016
29.1530,-0.5013,-3.1652,0.4068,3.230
29.1560,1.5778,-2.1739,-0.2363,2.696
29.1590,0.6070,-1.3691,1.9480,2.457
29.1620,0.3485,-0.7496,3.6195,3.713
29.1650,1.8608,0.8193,3.5298,4.073
29.1670,2.4710,2.5411,5.1768,6.274
29.1730,1.7094,3.6989,7.3327,8.389
29.1810,0.7818,4.8509,7.1288,8.658
29.1920,0.0651,5.2726,6.3569,8.259
29.2010,0.1026,5.3822,6.4079,8.369
29.2520,1.4015,5.7151,6.1487,8.511
29.2610,2.2015,5.8466,6.3952,8.940
29.2630,3.7019,6.4917,6.7122,10.045
29.2660,4.9776,7.2346,6.6481,11.014
29.2700,5.8279,7.5792,7.0123,11.857
29.2730,6.2296,7.9528,7.3400,12.487
29.2760,6.1116,8.2439,7.8766,12.937
29.2810,5.7307,8.3567,7.6761,12.712
29.2910,5.1067,8.4993,6.8248,12.037
29.3000,4.6177,8.9611,5.9120,11.687
29.3560,2.7309,8.4582,4.2736,9.862
29.3620,1.8697,7.5804,1.3061,7.916
29.3640,0.9998,6.1960,-4.0133,7.450
29.3670,-1.5371,4.1096,-8.0584,9.175
29.3690,-3.5051,2.1064,-11.1824,11.907
29.3720,-5.0487,-0.3519,-13.2198,14.155
29.3740,-5.2400,-4.0807,-7.1601,9.766
29.3820,-3.2104,-6.4775,-2.5354,7.661
29.3910,-1.6904,-8.1987,-4.4197,9.466
29.4000,-1.8178,-8.9971,-7.5799,11.904
29.4280,-1.4905,-9.6789,-7.0558,12.070
29.4290,5.5614,-13.2643,-0.8120,14.406
29.4310,19.6956,-21.8068,2.1088,29.460
29.4410,13.6579,-26.1839,-8.4482,30.717
29.4500,-1.7476,-11.7032,0.0973,11.833
29.4920,3.4995,3.4363,13.1347,14.021
29.4990,5.1626,9.1463,10.1214,14.586
29.5020,4.2372,9.9371,7.4587,13.128
29.5050,4.0141,9.9504,3.4129,11.259
29.5080,5.7767,9.8656,0.3730,11.439
29.5390,6.7087,7.6064,1.0475,10.196
29.5430,8.0621,5.7590,2.1163,10.131
29.5450,8.7954,4.6435,2.8598,10.349
29.5480,8.3075,2.8613,4.0693,9.683
29.5870,6.5318,0.7992,5.1807,8.375
29.5890,4.0426,-1.1887,7.1703,8.317
29.5920,2.2532,-2.5409,10.3137,10.858
29.5950,1.7624,-3.0779,11.9090,12.426
29.5970,1.4649,-3.0567,11.4828,11.973
29.6000,0.9867,-3.5612,9.4968,10.190
29.6110,-0.4517,-3.8091,7.5096,8.433
29.6280,-1.6485,-3.2748,5.4776,6.591
29.6310,-2.1504,-2.2605,3.7866,4.906
29.6780,-2.3476,-0.8454,6.0742,6.567
29.6790,-3.0619,-1.1084,0.1008,3.258
29.6800,-9.8450,-4.1515,-13.3544,17.103
29.6810,-12.6886,-4.0951,-15.7622,20.645
29.6820,-11.7128,-1.5941,-12.6158,17.288
29.6940,-7.7587,1.3569,-7.7097,11.022
29.7000,-4.4558,2.6007,-3.3908,6.174
29.7440,-2.4637,2.2338,0.4079,3.351
29.7450,0.0547,1.6836,2.0284,2.637
29.7460,2.0000,0.9912,1.2800,2.573
29.7470,2.1465,-0.3687,-0.5464,2.245
29.8170,1.0205,-0.7307,-2.3312,2.648
29.8300,0.1326,-0.4278,-3.4827,3.511
29.8340,-0.0777,-0.5520,-3.6728,3.715
29.8540,0.0078,-1.5845,-3.9828,4.286
29.8600,-0.4866,-2.9294,-5.7910,6.508
29.8630,-0.5391,-2.9579,-5.8347,6.564
29.8660,-4.3680,-4.9632,-12.3465,14.005
29.8680,-6.3211,-5.7317,-10.4642,13.502
29.8690,-6.1694,-5.6949,-5.6821,10.138
29.8700,-5.7098,-5.4530,-3.1503,8.501
29.8710,-6.3458,-5.5078,-3.6149,9.147
29.8720,-7.3325,-5.4093,-4.7319,10.267
29.8730,-8.7696,-6.0567,-5.3789,11.938
29.8820,-9.9182,-7.4035,-4.9957,13.347
29.8930,-11.4929,-8.9338,-2.8692,14.837
29.9010,-11.8703,-8.9264,-1.7339,14.953
29.9600,-7.7965,-6.0703,-3.9134,10.628
29.9650,-3.5834,-3.5625,-7.2585,8.844
29.9660,-0.3505,-2.8507,-10.4967,10.883
29.9680,1.6071,-3.8236,-11.8686,12.572
29.9720,4.0422,-5.5576,-7.7304,10.343
29.9740,6.0862,-6.1189,-0.2249,8.633
29.9760,6.8352,-6.2896,4.8827,10.494
30.0130,5.1833,-6.7523,7.2640,11.190
30.0140,3.7008,-7.8424,5.4514,10.243
30.0140,4.1501,-8.4797,2.7012,9.820
30.0150,5.5078,-7.2004,2.3896,9.375
30.0680,6.6478,-5.5250,4.1361,9.583
30.0760,5.4544,-2.5661,6.2668,8.695
30.0770,3.1372,-1.8654,-0.7369,3.724
30.0790,1.0906,-2.7187,-2.3183,3.736
30.0820,1.5220,-2.4592,0.8209,3.006
30.0840,-0.5419,-2.5657,4.1860,4.940
30.0850,-0.0031,-1.3501,1.3891,1.937
30.1000,1.9868,0.7675,2.8465,3.555
30.1000,2.8661,2.8179,5.0673,6.468
30.1490,2.2655,4.1707,6.2625,7.858
30.1500,0.8901,5.0678,5.9439,7.862
30.1510,-0.0712,5.5090,5.2802,7.631
30.1520,0.4313,5.5703,5.3497,7.735
30.1520,1.2411,5.3507,5.1978,7.562
30.2060,2.3679,5.4445,5.0330,7.783
30.2180,3.7240,5.9820,5.0750,8.684
30.2230,5.1618,6.5223,5.3436,9.886
30.2280,6.0904,7.0592,5.6942,10.925
30.2310,6.7379,7.9550,6.2313,12.145
30.2350,6.2569,8.3431,6.7382,12.416
30.2380,5.5378,8.8536,6.9610,12.550
30.2420,4.5858,9.2762,6.4800,12.209
30.2450,3.3925,9.6676,5.3323,11.550
30.2570,2.7998,9.3280,4.0496,10.547
30.2670,2.7847,8.5694,1.5291,9.139
30.3140,1.7094,7.2238,-2.1268,7.722
30.3240,-1.4578,4.6107,-6.0261,7.726
30.3270,-2.7535,2.3954,-9.2439,9.938
30.3290,-4.0217,-1.0429,-11.2999,12.040
30.3320,-4.2226,-5.1455,-9.6334,11.709
30.3340,-1.7823,-10.3359,-10.9043,15.130
30.3380,-1.0229,-18.0506,-13.3921,22.499
30.3430,4.0958,-29.9224,-4.4386,30.526
30.3630,17.0384,-29.8841,-0.7950,34.409
30.3670,1.8613,-28.5163,-13.0866,31.431
30.4170,-2.4235,-6.9323,2.2206,7.672
30.4210,3.8671,8.4128,13.6654,16.507
30.4220,3.8549,12.3497,11.6455,17.407
30.4220,2.5395,12.7743,9.0154,15.840
30.4230,2.6439,12.7781,8.9881,15.845
30.4240,4.7869,13.8592,-2.1733,14.823
30.4310,5.6777,11.9146,-0.9695,13.234
30.4770,6.9652,9.8882,0.6849,12.114
30.4780,9.6480,8.0460,3.4577,13.030
30.4790,12.2608,6.6745,4.6912,14.727
30.4800,13.0954,4.9073,5.3691,14.980
30.4800,13.0113,4.9319,5.2843,14.884
30.5000,4.8541,-2.6774,7.8955,9.647
30.5010,-0.3529,-6.5590,12.4554,14.081
30.5510,-0.3887,-7.6074,16.9303,18.565
30.5540,3.1703,-5.1822,12.1047,13.544
30.5550,3.2212,-4.3391,7.2430,9.037
30.5560,1.6343,-4.0805,4.4816,6.277
30.5570,-0.3149,-3.3857,3.1211,4.616
30.5600,-1.7838,-2.5442,2.2792,3.854
30.5770,-1.8591,-1.3579,6.0643,6.487
30.5800,-7.5551,-4.1162,-9.3675,12.719
30.6290,-14.1434,-5.9282,-14.0210,20.779
30.6310,-14.6866,-3.9892,-14.1230,20.762
30.6320,-10.6215,0.0684,-10.4178,14.878
30.6320,-6.5196,2.1337,-6.2183,9.259
30.6330,-3.9691,1.8636,-2.3441,4.972
30.6400,-1.8261,1.1789,-0.6569,2.271
30.6520,0.8898,0.7364,-0.5762,1.291
30.6610,2.2325,-0.3239,-0.9097,2.432
30.6710,2.5053,-1.0458,-1.2408,2.985
30.7270,2.3113,-0.6302,-1.7041,2.940
30.7350,1.8445,-0.1468,-2.9634,3.494
30.7430,1.9731,-0.1220,-4.2038,4.645
30.7540,2.2152,-0.4790,-5.3431,5.804
30.7670,1.1772,-1.3223,-7.0208,7.241
30.7700,-0.3527,-2.4284,-8.4815,8.829
30.7740,-0.4487,-2.4540,-8.4695,8.829
30.7780,-4.0622,-4.6541,-7.6994,9.871
30.7820,-5.3307,-4.9373,-5.3702,9.035
30.7850,-6.0037,-5.0761,-4.0155,8.828
30.8010,-7.0394,-5.1818,-2.8274,9.187
30.8050,-8.5307,-5.2288,-3.2976,10.535
30.8070,-9.8487,-4.8112,-4.7569,11.949
30.8110,-10.2529,-4.7575,-6.2575,12.919
30.8210,-10.7346,-6.2321,-6.6215,14.068
30.8310,-11.6450,-7.9909,-5.2264,15.059
30.8980,-9.6635,-7.6506,-2.9919,12.683
30.9090,-5.8215,-5.6382,-2.6559,8.528
30.9120,-2.1540,-3.1605,-5.1037,6.378
30.9140,0.9379,-1.9916,-9.4906,9.743
30.9170,3.8519,-2.3811,-14.5173,15.207
30.9200,6.5315,-3.9092,-9.4450,12.131
30.9230,7.7962,-5.0696,0.2461,9.303
30.9260,8.1448,-5.6601,4.4570,10.874
30.9280,4.3345,-6.3581,6.7034,10.205
30.9370,4.0549,-7.6420,4.8835,9.934
30.9870,4.8623,-8.1925,3.4341,10.127
30.9880,6.3865,-7.4315,4.2272,10.672
30.9890,6.5622,-5.8405,8.2032,12.019
30.9890,2.4899,-3.7873,6.2726,7.739
30.9900,-1.5867,-3.3364,-2.7261,4.591
30.9960,-2.1756,-3.3905,-5.8999,7.144
31.0010,0.9521,-2.1276,-2.5644,3.465
31.0480,0.0124,-2.3002,3.2700,3.998
31.0520,2.3741,-0.2503,1.1554,2.652
31.0580,4.6995,1.7503,2.7492,5.719
31.0620,5.4454,3.1325,4.5953,7.783
31.0660,5.0363,4.3165,5.7135,8.754
31.0690,3.3300,4.7523,6.0805,8.405
31.0740,1.1853,4.9257,5.0999,7.189
31.0820,-0.6198,4.3448,4.3853,6.204
31.1030,-0.9123,3.5692,4.2015,5.588
31.1060,0.5530,3.8035,4.6621,6.042
31.1710,2.8250,4.7533,4.9336,7.410
31.1770,3.6338,5.3026,5.7460,8.622
31.1820,4.9850,6.4179,5.9483,10.071
31.1850,6.4809,7.7248,6.0961,11.783
31.1880,6.5982,8.6464,6.2017,12.520
31.1920,5.4261,8.8584,6.4250,12.215
31.1950,3.7772,8.7599,6.4377,11.509
31.1980,2.9023,8.8938,5.8631,11.041
31.2000,2.4636,9.3633,4.3755,10.625
31.2040,2.2115,9.2864,2.3214,9.824
31.2110,0.7573,8.0899,-1.3245,8.233
31.2200,-2.0891,5.7880,-4.5842,7.673
31.2310,-3.9417,2.9906,-10.0574,11.209
31.2930,-5.5613,-0.4486,-13.8041,14.889
31.2950,-4.4839,-4.5497,-10.2848,12.107
31.2980,-2.1587,-7.7848,-7.0184,10.702
31.3000,-1.7333,-10.9793,-5.7940,12.535
31.3020,-1.0460,-12.6377,-4.3291,13.400
31.3050,3.7601,-16.8058,-0.9690,17.249
31.3120,14.2486,-24.5911,0.8910,28.435
31.3150,8.6392,-27.4750,-10.6447,30.705
31.3420,-3.9603,-13.6635,-4.3136,14.865
31.3430,1.2522,0.8489,12.1086,12.203
31.3440,6.0285,9.2588,13.3249,17.310
31.3960,5.0633,10.4307,8.1544,14.175
31.4000,8.8580,14.0006,-6.4321,17.772
31.4050,7.9587,11.8925,-1.7595,14.418
31.4150,8.5899,8.6771,0.2923,12.213
31.4210,9.3689,6.6858,1.9461,11.673
31.4250,9.8785,4.7682,3.8298,11.618
31.4290,9.3618,3.1280,4.6026,10.891
31.4340,6.8265,0.4900,6.0083,9.107
31.4380,4.4561,-1.6903,8.0637,9.367
31.4420,3.0791,-3.2144,13.3315,14.055
31.4510,2.5070,-3.4865,14.7057,15.320
31.4610,2.8384,-2.2869,12.0943,12.632
31.4710,2.9441,-2.1969,9.0703,9.786
31.5110,0.9749,-3.3481,6.1245,7.048
31.5140,-1.8265,-4.3705,4.8446,6.776
31.5150,-3.0501,-4.4048,3.7516,6.541
31.5160,-3.2729,-4.4344,3.3863,6.469
31.5200,-3.0253,-2.3734,4.2011,5.695
31.5310,-7.2131,-4.1392,-5.6852,10.074
31.5460,-13.5262,-5.6385,-11.4107,18.573
31.5510,-14.5651,-3.6692,-13.6484,20.295
31.5980,-10.9087,0.1709,-11.3012,15.708
31.6000,-7.5191,1.7900,-6.5924,10.159
31.6010,-5.8891,1.6245,-1.3606,6.259
31.6020,-4.4175,0.9856,1.0856,4.655
31.6020,-1.7793,0.8777,0.2833,2.004
31.6660,0.8178,0.9945,-1.9659,2.350
31.6770,1.5714,0.3707,-3.0950,3.491
31.6840,1.0948,0.0252,-3.2504,3.430
31.6900,-0.0592,-0.1559,-3.1259,3.130
31.6950,-1.1937,-0.7827,-2.5904,2.958
31.6990,-0.9605,-1.5537,-2.1970,2.857
31.7030,-0.3603,-2.7090,-3.6343,4.547
31.7050,-1.2187,-3.7456,-6.7476,7.813
31.7100,-3.1595,-4.3587,-9.9868,11.345
31.7150,-5.1840,-4.7263,-11.1222,13.150
31.7200,-6.4215,-5.1262,-8.1666,11.585
31.7220,-6.4673,-5.3986,-4.6506,9.623
31.7320,-7.0354,-6.0587,-2.3655,9.581
31.7400,-7.5266,-6.4765,-2.3500,10.204
31.7570,-7.5999,-6.2875,-3.8019,10.571
31.7610,-8.1762,-6.8960,-4.9746,11.796
31.7730,-10.0199,-8.8976,-4.6320,14.178
31.7860,-10.2318,-8.5776,-3.5528,13.816
31.8060,-8.7436,-6.5907,-1.5867,11.064
31.8060,-7.0569,-5.1680,-1.9390,8.959
31.8550,-4.5558,-3.9901,-5.7566,8.356
31.8560,-2.1336,-3.8193,-10.2567,11.151
31.8570,0.9628,-4.9541,-12.4797,13.462
31.8580,4.1046,-5.8195,-5.5995,9.059
31.8590,6.5576,-5.9713,1.1974,8.949
31.9130,6.8135,-5.8329,5.3006,10.418
31.9280,5.1036,-7.0283,6.3431,10.755
31.9330,4.4594,-7.9574,4.8715,10.341
31.9380,4.3570,-8.2434,4.7810,10.478
31.9430,5.7884,-6.7503,7.6192,11.710
31.9470,4.8643,-5.0603,8.8981,11.333
31.9490,1.0019,-3.5420,4.7051,5.974
31.9530,1.2622,-2.5013,-2.8682,4.010
31.9560,1.3963,-1.6560,-4.9029,5.360
31.9610,1.0811,-1.6604,0.0551,1.982
31.9650,1.9125,-1.1221,6.2195,6.603
31.9710,2.6712,0.9456,4.5415,5.353
31.9830,0.5237,1.9870,5.2266,5.616
32.0440,-0.9142,2.6323,5.6560,6.305
32.0500,-1.4521,3.2807,4.7682,5.967
32.0510,-1.5363,3.4356,5.3384,6.532
32.0530,-1.1321,3.5240,6.2815,7.291
32.0540,0.4810,4.2317,6.1956,7.518
32.0550,2.4121,5.0042,6.2340,8.350
32.0580,3.3061,5.6533,6.5733,9.279
32.0630,4.5504,6.2128,7.0767,10.459
32.0710,5.8759,6.6989,7.2670,11.498
32.0830,6.8882,7.3932,7.4156,12.534
32.1360,6.5171,7.7468,7.6305,12.677
32.1360,5.6034,7.9944,7.5171,12.321
32.1370,3.8146,8.4504,7.2981,11.799
32.1380,2.1792,9.0763,6.3806,11.307
32.1380,0.6215,8.8406,5.0846,10.217
32.1410,-0.0306,8.2430,2.3828,8.581
32.1520,-0.7835,7.4811,-1.1060,7.603
32.1630,-3.8064,5.5874,-6.0751,9.089
32.1730,-6.9994,3.1011,-9.6296,12.302
32.2010,-9.8118,-0.4658,-9.5919,13.729
32.2050,-8.7993,-3.1666,-5.2306,10.715
32.2080,-4.9795,-5.8637,-2.8819,8.215
32.2560,-0.6904,-8.0850,-5.9537,10.064
32.2670,1.4325,-11.5098,-12.1007,16.762
32.2700,6.1344,-20.2254,-15.1488,26.004
32.2730,15.6746,-30.3611,-7.2308,34.925
32.2770,9.4524,-30.3353,-9.9380,33.292
32.2810,-0.8173,-11.9057,2.6986,12.235
32.2840,2.7066,6.0246,20.9053,21.924
32.2860,3.5398,11.8967,14.9938,19.465
32.2980,3.4594,13.1591,8.2501,15.912
32.3020,7.0075,15.2605,0.7441,16.809
32.3140,9.8669,15.3748,0.3860,18.273
32.3200,10.6630,11.7312,2.4257,16.038
32.3860,11.3169,7.8837,5.8192,14.970
32.3950,11.5791,4.3743,10.3666,16.146
32.3990,12.4745,1.0682,12.9507,18.013
32.4000,9.7236,-1.4561,13.4232,16.639
32.4010,2.6749,-5.9451,14.7131,16.093
32.4020,-0.9430,-8.2567,14.5833,16.785
32.4030,-1.2845,-9.3643,14.1688,17.032
32.4040,0.8426,-7.7347,11.9993,14.301
32.4130,2.4352,-6.7419,7.7114,10.528
32.4210,1.3574,-6.5283,5.1561,8.429
32.4620,-0.0214,-5.8192,2.7863,6.452
32.4630,-3.3504,-4.2647,2.9135,6.156
32.4650,-7.9163,-3.9609,-21.0836,22.866
32.4670,-11.3828,-3.4489,-16.2698,20.154
32.4710,-12.1565,-1.2608,-8.2522,14.747
32.4840,-11.9377,-0.1924,-3.7541,12.516
32.4950,-9.9392,1.3714,-4.0742,10.829
32.5430,-6.6901,2.7677,-5.8026,9.278
32.5440,-3.6972,3.1192,-5.4324,7.274
32.5440,-1.6484,2.1343,-2.2397,3.506
32.5450,-0.3635,0.1472,0.3616,0.533
32.5460,0.7318,-1.0535,1.8699,2.268
32.5900,0.8684,-0.7837,2.4750,2.737
32.5930,0.2142,-0.0631,3.1673,3.175
32.5940,-0.3947,1.1759,3.5487,3.759
32.5950,-0.5972,2.2070,3.3048,4.019
32.5950,-0.7417,2.3731,2.9952,3.893
32.6000,-0.8355,0.8676,2.7377,2.991
32.6150,-0.4002,-1.4726,1.5114,2.148
32.6200,0.2285,-3.8733,-3.2934,5.089
32.6660,-0.5890,-5.4682,-12.5921,13.741
32.6680,-1.6261,-6.1691,-24.0514,24.883
32.6680,-2.4428,-6.1873,-20.6052,21.652
32.6690,-2.4799,-5.5048,-7.7072,9.791
32.6710,-1.6129,-4.6414,-1.3507,5.096
32.6800,-4.1449,-5.2057,-0.9058,6.716
32.6910,-6.6270,-5.8904,-3.5455,9.549
32.7020,-8.4839,-7.1860,-6.0082,12.638
32.7660,-10.3360,-8.8202,-6.4690,15.049
32.7670,-13.0443,-9.5009,-3.9109,16.605
32.7680,-14.7638,-8.7252,-1.4911,17.214
32.7690,-14.0039,-6.9404,-1.7981,15.732
32.7700,-9.4522,-4.5655,-5.0897,11.666
32.7710,-4.3154,-3.4741,-7.8383,9.598
32.7750,-0.6671,-4.4127,-7.6270,8.837
32.8150,2.8288,-5.9843,-1.1833,6.724
32.8200,5.1702,-6.2568,2.8401,8.599
32.8230,6.4475,-6.0138,5.5358,10.411
32.8250,5.5065,-6.3972,6.5616,10.691
32.8280,4.4388,-6.9685,4.2041,9.270
32.8330,4.9023,-6.6044,2.2644,8.531
32.8420,5.5828,-6.1673,3.0616,8.864
32.8530,3.0453,-4.5589,9.7602,11.195
32.8620,3.2104,-4.5929,10.0719,11.526
32.8730,-2.6680,-3.1957,0.1950,4.168
32.8810,-2.1910,-3.0311,0.2596,3.749
32.9370,-2.7095,-3.5992,3.9933,6.020
32.9420,-1.9447,-3.4574,3.2545,5.131
32.9460,1.8638,-1.3872,2.8479,3.675
32.9480,3.4073,0.6772,3.7161,5.087
32.9500,2.5656,2.5667,5.8677,6.899
32.9530,1.7910,3.7797,7.1352,8.271
32.9550,1.3411,4.7302,6.6858,8.299
32.9860,0.8667,4.9246,5.7903,7.651
32.9890,0.4058,5.0429,5.4147,7.410
32.9910,1.6073,5.0520,5.2732,7.477
32.9940,3.8459,5.2734,5.7124,8.674
33.0000,5.4650,5.6683,6.1279,9.977
33.0130,6.6487,5.8801,6.8684,11.223
33.0210,7.0415,5.8541,7.5941,11.896
33.0750,7.2861,6.1896,7.9831,12.455
33.0860,6.6006,6.8907,8.1261,12.533
33.0890,5.0211,7.5756,7.9803,12.095
33.0940,3.3160,8.3671,6.7255,11.235
33.1000,2.1091,9.0281,4.3160,10.227
33.1030,2.1038,9.0260,4.3209,10.226
33.1060,-0.2799,7.8518,-1.2111,7.950
33.1090,-2.1122,6.2236,-5.5113,8.577
33.1140,-4.3544,3.9511,-10.4983,12.033
33.1240,-6.4478,0.9397,-11.1633,12.926
33.1320,-7.5068,-2.6486,-7.5848,10.995
33.1410,-6.3586,-6.0734,-4.3343,9.803
33.1510,-3.7121,-7.6835,-3.8318,9.354
33.2280,-1.3850,-7.7068,-4.3071,8.937
33.2380,-0.1076,-7.8285,-1.8693,8.049
33.2400,7.3558,-11.0750,2.0265,13.449
33.2460,21.0750,-19.1630,-0.7232,28.494
33.2490,9.0745,-29.3610,-18.4046,35.821
33.2530,-1.3237,-17.6930,-4.0573,18.200
33.2570,3.1281,0.1469,16.9109,17.198
33.2580,6.2361,8.5400,13.0717,16.813
33.2590,4.7651,10.4938,5.8069,12.905
33.2600,4.8338,12.0538,-0.9921,13.025
33.2610,5.2643,9.9093,0.4728,11.231
33.2770,6.8017,7.7671,0.6972,10.348
33.3330,8.4067,5.8788,2.2594,10.504
33.3360,9.5349,4.5217,3.6784,11.175
33.3370,9.3006,2.5881,4.9855,10.865
33.3380,7.0166,0.2947,6.3031,9.437
33.3380,4.6820,-1.7961,8.0282,9.466
33.3390,4.1942,-2.7281,9.0954,10.381
33.3400,2.8974,-2.8826,10.5100,11.277
33.3780,2.4962,-2.3678,9.8871,10.469
33.3790,2.6630,-2.9282,7.3936,8.386
33.3800,0.7029,-3.5699,5.3275,6.451
33.3810,-1.1105,-3.4269,3.8058,5.240
33.3910,-2.2663,-2.7519,3.1658,4.768
33.4000,-2.9115,-1.8516,2.4068,4.207
33.4160,-3.7661,-0.6765,3.5728,5.235
33.4200,-4.2065,-0.2445,5.1681,6.668
33.4720,-9.3991,-2.3680,-5.7985,11.295
33.4740,-12.7605,-2.9643,-13.1902,18.590
33.4750,-11.4791,-1.3426,-13.6938,17.919
33.4760,-9.8079,-0.0576,-10.0044,14.010
33.4780,-7.5305,0.4498,-5.3569,9.252
