time,ax,ay,az,aT
2.8990,-0.5122,-0.0430,-0.1292,0.530
2.9080,-0.0224,0.0298,-0.3452,0.347
2.9170,0.3228,-0.0912,-0.2648,0.427
2.9290,-2.0247,-0.6981,0.2017,2.151
2.9370,-0.6936,0.1502,-0.4762,0.855
2.9480,0.3287,0.9458,-0.4634,1.103
2.9570,0.2109,0.3369,-0.8486,0.937
2.9700,0.0161,-0.1470,-0.7426,0.757
2.9910,0.0373,-0.0496,0.0482,0.079
2.9950,0.2750,0.0812,0.4801,0.559
2.9970,0.3312,-0.0390,0.5251,0.622
3.0080,0.3525,-0.1138,0.4244,0.563
3.0170,0.3282,-0.1676,0.2824,0.464
3.0280,0.3980,-0.1706,-0.0638,0.438
3.0360,0.5138,-0.1381,-0.3324,0.627
3.0470,0.5487,-0.1513,-0.3531,0.670
3.0570,0.4119,-0.1626,-0.1407,0.465
3.0680,0.3016,-0.1494,0.0735,0.345
3.0800,0.2900,-0.1373,0.0086,0.321
3.0880,0.2980,-0.1310,-0.2621,0.418
3.0970,0.4150,-0.1511,-0.4410,0.624
3.1110,0.4332,-0.1839,-0.4212,0.632
3.1240,0.3940,-0.2525,-0.3440,0.581
3.1300,0.3832,-0.2501,-0.3002,0.547
3.1420,0.4357,-0.1905,-0.3099,0.568
3.1530,0.5721,-0.1411,-0.4968,0.771
3.1570,0.4826,-0.2231,-0.6286,0.823
3.1680,0.2911,-0.2936,-0.6942,0.808
3.1790,0.2028,-0.3041,-0.6470,0.743
3.1880,0.1479,-0.3965,-0.6626,0.786
3.1970,-0.0550,-0.4843,-0.7257,0.874
3.2090,-0.1351,-0.5399,-1.0484,1.187
3.2180,-0.1780,-0.5609,-1.4456,1.561
3.2310,-0.3278,-0.5518,-1.8795,1.986
3.2370,-0.3029,-0.5902,-2.1973,2.295
3.2480,0.0433,-0.6843,-2.2871,2.388
3.2580,0.4744,-0.8335,-2.5117,2.689
3.2680,0.2164,-0.8458,-2.5550,2.700
3.2770,-0.1112,-0.7803,-2.8843,2.990
3.2880,-0.0644,-0.8475,-3.2649,3.374
3.3020,0.1098,-1.0357,-3.1158,3.285
3.3080,0.5818,-1.0709,-2.2882,2.592
3.3170,0.5134,-0.9537,-0.7062,1.293
3.3280,0.0985,-0.8484,0.2793,0.899
3.3380,0.1243,-0.8798,0.7367,1.154
3.3500,0.3724,-0.9139,1.1829,1.540
3.3570,0.8324,-0.9123,1.6396,2.053
3.3720,1.4658,-0.8827,1.9968,2.630
3.3850,1.8084,-1.0244,2.4119,3.184
3.3890,1.7551,-0.9185,2.8346,3.458
3.4050,0.9134,-0.3074,2.9547,3.108
3.4090,1.1622,-0.3092,3.1583,3.380
3.4170,0.3500,-0.1036,2.0243,2.057
3.4290,-0.6948,-0.4025,-0.3514,0.876
3.4380,-0.6441,-0.4385,0.1426,0.792
3.4490,-0.6359,-0.4336,1.0434,1.297
3.4570,-0.4214,-0.2859,2.0490,2.111
3.4720,-0.3980,-0.0512,2.6209,2.651
3.4790,-0.5986,-0.0830,2.5026,2.575
3.4890,-0.8466,-0.3594,2.4534,2.620
3.5040,-0.9597,-0.6176,2.5639,2.806
3.5090,-0.6214,-0.5901,2.5767,2.715
3.5160,-0.2542,-0.4549,2.5723,2.625
3.5350,-0.4742,-0.4424,2.4663,2.550
3.5370,-0.9266,-0.6670,2.2861,2.555
3.5480,-1.4491,-1.0848,1.8409,2.582
3.5570,-2.1087,-1.1592,1.4266,2.797
3.5710,-3.4104,-0.5882,0.3014,3.474
3.5780,-4.7277,0.1745,-1.5770,4.987
3.5900,-5.3120,0.7890,-3.4630,6.390
3.5970,-4.5117,0.9824,-4.7924,6.655
3.6080,-3.2850,1.2237,-5.6511,6.650
3.6250,-3.0646,1.5905,-5.6490,6.621
3.6280,-3.8008,1.9528,-5.0762,6.635
3.6430,-4.0803,1.8687,-3.9319,5.967
3.6510,-3.9133,1.4456,-1.9537,4.607
3.6570,-1.3810,-0.1338,-3.2074,3.495
3.6720,-0.5337,-0.2506,-4.6772,4.714
3.6800,-1.1662,2.0168,-1.8560,2.979
3.6880,0.6029,3.2226,0.5825,3.330
3.7000,0.8017,1.6873,0.7165,2.001
3.7150,0.2976,-0.2118,1.9265,1.961
3.7200,0.7536,-1.0865,3.7417,3.968
3.7280,1.7468,-1.2007,6.2684,6.617
3.7370,2.4439,-0.7834,6.9707,7.428
3.7470,2.0176,-1.8556,0.2850,2.756
3.7570,5.1988,-2.0897,-16.9647,17.866
3.7680,5.4791,-0.5451,-19.6341,20.392
3.7760,2.6837,-0.8789,-13.4791,13.772
3.7870,0.9101,-1.9242,-5.0781,5.506
3.7970,0.1835,-2.4454,2.7072,3.653
3.8080,0.3208,-3.3227,4.7050,5.769
3.8210,2.2741,-4.5408,3.1554,5.979
3.8280,3.5886,-4.3030,0.0704,5.603
3.8380,4.1345,-2.5773,-0.5020,4.898
3.8480,4.0351,-1.3191,-0.2625,4.253
3.8570,2.5465,-1.1248,-0.8679,2.916
3.8710,0.5156,-1.5098,-2.2930,2.793
3.8770,0.2112,-1.1008,-2.2715,2.533
3.8890,1.2477,-0.6413,-1.1451,1.811
3.9080,2.4237,-0.0555,0.1127,2.427
3.9080,3.2016,0.5686,0.7438,3.336
3.9180,3.4932,0.3073,0.0980,3.508
3.9270,3.7760,-0.1628,2.0175,4.284
3.9360,1.9307,-1.1744,3.5071,4.172
3.9480,2.5738,-2.2019,5.1400,6.156
3.9560,-0.1165,-2.9865,3.2923,4.447
3.9680,-1.2260,-2.5135,-13.3721,13.661
3.9770,2.0287,1.5313,-7.3548,7.782
3.9880,1.9938,3.9549,-0.4533,4.452
3.9960,-2.8209,0.4625,0.9540,3.014
4.0090,-1.8838,0.4398,-1.2536,2.305
4.0190,-2.6617,1.9869,-2.1529,3.958
4.0280,-3.0322,3.3058,-2.3215,5.051
4.0370,-3.5041,3.2534,-1.7191,5.081
4.0480,-6.8424,1.6800,-3.1337,7.711
4.0580,-5.2106,1.9597,-2.1036,5.951
4.0710,-2.6227,2.7274,-0.6503,3.839
4.0770,-0.4348,2.5705,-0.9056,2.760
4.0880,1.2618,2.0743,-1.0276,2.636
4.0970,1.3837,1.4900,-0.5890,2.117
4.1080,0.4322,-0.0754,0.1056,0.451
4.1180,-1.6722,-1.8389,-0.3287,2.507
4.1280,-5.5551,-3.1025,-0.9716,6.437
4.1380,-4.0297,-2.6795,-0.9090,4.924
4.1480,-0.0617,-1.8794,0.2713,1.900
4.1570,2.7462,-1.1266,0.7270,3.056
4.1690,4.7185,-0.6756,0.8186,4.836
4.1780,4.7219,-0.5201,0.6390,4.793
4.1890,4.5948,-0.8509,2.7892,5.442
4.1980,3.9724,-0.8170,1.3978,4.290
4.2080,2.6320,-0.8144,-0.1171,2.758
4.2170,1.6877,-0.8512,-1.5328,2.434
4.2280,1.1279,-1.2166,-1.6886,2.367
4.2390,0.6418,-1.8750,-1.2962,2.368
4.2480,-0.8563,-2.9203,-0.9110,3.177
4.2570,-1.5444,-3.5261,0.6206,3.899
4.2680,0.9912,-3.5649,2.3594,4.388
4.2780,3.0650,-2.5688,2.3807,4.654
4.2900,3.5532,-1.4053,0.6673,3.879
4.2970,2.7498,-0.1425,-0.7739,2.860
4.3090,2.8249,1.6868,-0.4020,3.315
4.3170,3.1147,2.7100,0.4466,4.153
4.3280,2.3499,3.2051,0.5093,4.007
4.3400,3.0391,2.6940,0.9508,4.171
4.3480,3.9208,1.8794,0.5335,4.381
4.3570,2.1105,0.1999,-0.5041,2.179
4.3680,-2.8714,-2.5533,0.5824,3.886
4.3780,-6.1930,-2.8840,1.7715,7.058
4.3960,-5.0990,-0.6029,2.3816,5.660
4.3990,-1.9377,1.4096,2.3511,3.357
4.4140,2.0720,2.6070,0.0522,3.331
4.4190,2.8281,2.1315,1.2720,3.763
4.4290,3.3674,2.5145,1.4046,4.431
4.4370,3.9377,2.7490,0.4346,4.822
4.4480,3.0906,2.9654,0.1877,4.287
4.4570,2.5444,2.9486,-0.0533,3.895
4.4680,2.3847,2.7374,0.5949,3.679
4.4770,2.0987,2.7408,1.7923,3.890
4.4890,1.7992,2.9492,2.7695,4.428
4.4970,1.7766,3.2132,3.5488,5.106
4.5120,2.8397,3.1596,3.2940,5.376
4.5180,3.3620,3.1932,2.4292,5.235
4.5280,3.8195,4.0528,2.0549,5.936
4.5370,3.8362,4.0201,1.2298,5.691
4.5490,3.6618,3.0991,-0.4328,4.817
4.5600,2.7556,1.9011,-2.6765,4.286
4.5680,0.1012,-0.7504,-4.8515,4.910
4.5770,-3.0860,-3.5081,-3.9005,6.086
4.5880,-1.9774,-7.0762,-1.5969,7.519
4.5970,-2.4942,-10.9983,2.4181,11.534
4.6150,-3.0122,-14.3588,4.2988,15.288
4.6180,-2.8935,-15.4548,5.1902,16.558
4.6300,-1.8534,-15.6751,2.8196,16.034
4.6370,-0.4546,-15.4071,-0.0936,15.414
4.6480,1.0231,-8.9211,-2.9716,9.459
4.6570,1.1054,-1.3779,-7.6229,7.825
4.6690,1.2095,4.3039,-8.2453,9.379
4.6770,2.4982,2.6322,-2.9163,4.656
4.6880,3.0347,1.1802,0.6367,3.318
4.6970,3.0950,0.3177,2.4970,3.989
4.7140,3.3110,0.0709,2.9925,4.463
4.7250,3.5003,0.3666,2.4967,4.315
4.7300,3.2547,0.7080,1.4638,3.638
4.7370,2.2842,0.6867,0.3395,2.409
4.7480,2.0268,0.1449,-0.0808,2.034
4.7570,1.8908,-0.1257,-0.3856,1.934
4.7680,1.1973,-0.0805,-0.7069,1.393
4.7780,0.1721,0.0027,-0.4006,0.436
4.7890,-0.5669,-0.1381,0.4815,0.756
4.7980,-0.7374,-0.0025,0.7253,1.034
4.8090,-1.1973,-0.0473,1.0266,1.578
4.8210,-1.4195,-0.3153,1.0748,1.808
4.8410,-0.8566,0.0246,0.2981,0.907
4.8450,1.0736,4.2003,-0.5605,4.371
4.8520,0.8830,4.7262,0.1958,4.812
4.8580,0.6833,4.1617,2.2683,4.789
4.8690,-1.1409,0.1827,4.8081,4.945
4.8780,-0.7457,-1.6814,5.5337,5.831
4.8880,0.0749,-2.0358,3.0746,3.688
4.9050,0.7018,-1.1881,0.4958,1.466
4.9080,1.1565,-0.7920,-1.0927,1.777
4.9170,1.4824,-0.9520,-2.2426,2.852
4.9300,1.6801,-0.8534,-3.0903,3.620
4.9380,2.0107,0.6391,-4.5263,4.994
4.9490,1.4515,0.8252,-4.4988,4.799
4.9570,1.1086,0.2441,-2.7381,2.964
4.9700,0.7545,-0.2753,-0.8591,1.176
4.9830,0.4626,-0.7775,1.2431,1.537
4.9890,0.8653,-0.8908,2.1105,2.449
5.0000,1.4065,-1.0587,1.5975,2.377
5.0080,1.6745,-0.7181,0.7177,1.958
5.0170,1.1753,-0.7680,-0.5800,1.519
5.0390,0.6348,-1.0661,-1.6121,2.034
5.0420,0.7684,-0.8900,-2.1319,2.435
5.0510,1.0581,-0.8560,-2.3052,2.677
5.0570,0.8705,-0.9737,-2.2277,2.582
5.0680,1.0036,-0.9656,-2.9842,3.293
5.0770,1.1172,-0.8708,-3.8364,4.090
5.0890,0.5974,-0.8082,-1.5840,1.876
5.0980,-0.1805,-0.1086,0.3238,0.386
5.1080,-0.5873,0.8622,1.1751,1.571
5.1190,-0.5070,1.8670,2.1436,2.888
5.1320,-0.5193,2.2837,2.0101,3.086
5.1370,-0.8630,2.0521,1.9985,2.992
5.1500,-1.1714,1.2425,2.3884,2.936
5.1570,-1.4204,0.5552,2.6516,3.059
5.1690,-1.1749,0.1932,1.9933,2.322
5.1770,-0.7073,0.1545,1.5948,1.751
5.1890,-0.1422,-0.0357,1.2194,1.228
5.2060,0.2122,-0.2228,0.7618,0.822
5.2110,0.2662,-0.3353,-0.1107,0.442
5.2320,0.2508,-0.2990,-0.7341,0.831
5.2360,0.2996,-0.2926,-1.4829,1.541
5.2400,0.2843,-0.1459,-1.5244,1.558
5.2510,0.0564,0.0175,-1.1609,1.162
5.2580,0.1685,0.1029,-1.1664,1.183
5.2700,-0.2908,0.1089,-0.6758,0.744
5.2780,-0.4097,0.0763,-0.2173,0.470
5.2890,-0.3015,0.2746,0.4092,0.578
5.3060,-0.3145,0.3340,0.8331,0.951
5.3100,-0.5038,0.1787,1.3101,1.415
5.3320,-0.4427,0.0111,1.3417,1.413
5.3370,-0.0208,0.0382,0.7708,0.772
5.3400,0.2640,0.1896,0.1135,0.344
5.3520,0.3211,0.2954,-0.4146,0.602
5.3580,0.3826,0.3687,-0.5844,0.790
5.3690,0.5181,0.3917,-0.2999,0.715
5.3780,0.5779,0.3180,0.0918,0.666
5.3890,0.5476,0.2085,0.3828,0.700
5.3980,0.3956,0.0428,0.4291,0.585
5.4100,0.2314,-0.0924,0.3360,0.418
5.4240,0.0999,-0.0617,0.2110,0.241
5.4290,0.0943,-0.0137,0.1935,0.216
5.4500,0.2105,-0.0159,0.2199,0.305
5.4540,0.2053,-0.0174,0.2050,0.291
5.4570,0.3135,0.0181,-0.0517,0.318
5.4700,0.3052,0.0226,-0.1087,0.325
5.4790,0.4036,-0.0219,-0.0019,0.404
5.4890,0.4403,-0.0613,0.2070,0.490
5.4980,0.5102,-0.0203,0.4829,0.703
5.5090,0.6224,0.1177,0.6660,0.919
5.5230,0.7641,0.1597,0.6910,1.043
5.5290,0.7570,0.1639,0.4947,0.919
5.5430,0.7435,0.1471,0.0749,0.762
5.5480,0.7294,0.1924,-0.2246,0.787
5.5580,0.5994,0.1733,-0.3339,0.708
5.5720,0.4016,0.1872,-0.1845,0.480
5.5770,0.2340,0.1956,0.0934,0.319
5.5890,0.1456,0.1588,0.2708,0.346
5.5980,0.0921,0.0909,0.2347,0.268
5.6090,0.0241,-0.0307,0.0430,0.058
5.6290,0.0207,-0.0313,0.0393,0.054
5.6330,0.0115,-0.2496,-0.2976,0.389
5.6590,0.0518,-0.3166,-0.2684,0.418
5.6630,0.0930,-0.2673,-0.2048,0.349
5.6660,0.1332,-0.1136,-0.2271,0.287
5.6690,0.2625,0.1036,-0.2580,0.382
5.6790,0.4732,0.2958,-0.3095,0.638
5.6910,0.7060,0.3744,-0.2054,0.825
5.6980,0.7741,0.2962,-0.0815,0.833
5.7090,0.7708,0.1258,0.0460,0.782
5.7180,0.6425,0.0316,0.0593,0.646
5.7310,0.2409,-0.0094,-0.0066,0.241
5.7550,-0.2703,0.1266,-0.0376,0.301
5.7600,-0.6299,0.3059,0.1695,0.720
5.7610,-0.7547,0.3528,0.5286,0.987
5.7690,-0.9926,0.2250,0.9250,1.375
5.7780,-0.9540,0.2325,1.2075,1.556
5.7920,-1.0695,0.1332,1.2930,1.683
5.7980,-1.2280,0.0433,1.1066,1.654
5.8100,-1.4159,-0.0070,0.7191,1.588
5.8180,-1.4388,0.0169,0.4167,1.498
5.8310,-1.1320,0.1186,0.3399,1.188
5.8500,-0.6761,0.2278,0.4123,0.824
5.8540,-0.1907,0.2676,0.4422,0.551
5.8600,0.2267,0.3084,0.3773,0.537
5.8680,0.7113,0.3393,0.2352,0.822
5.8780,0.9490,0.3300,0.0546,1.006
5.8930,1.0001,0.3755,-0.0862,1.072
5.9280,0.8788,0.4230,-0.0756,0.978
5.9290,0.7276,0.4535,0.1207,0.866
5.9290,0.5645,0.3918,0.3060,0.752
5.9300,0.3376,0.3072,0.2758,0.533
5.9370,0.2031,0.1950,0.0902,0.296
5.9480,0.0971,0.0888,-0.1699,0.215
5.9570,-0.0605,-0.0508,-0.4403,0.447
5.9680,-0.1743,-0.1492,-0.6774,0.715
5.9790,-0.2430,-0.2092,-0.8233,0.884
5.9900,-0.2531,-0.2318,-0.9111,0.974
5.9980,-0.1992,-0.2540,-0.9803,1.032
6.0090,-0.1034,-0.2397,-1.0112,1.044
6.0170,0.0669,-0.2846,-0.9823,1.025
6.0280,0.2270,-0.3463,-0.8325,0.930
6.0370,0.3494,-0.4278,-0.7270,0.913
6.0510,0.4905,-0.3811,-0.6658,0.911
6.0720,0.4971,-0.2458,-0.4824,0.735
6.0750,0.4131,-0.0552,-0.3174,0.524
6.0780,0.4477,0.1993,-0.0633,0.494
6.0890,0.4525,0.2496,0.1647,0.542
6.0990,0.5452,0.3135,0.2496,0.677
6.1180,0.5564,0.4044,0.3539,0.774
6.1200,0.5514,0.6372,0.3928,0.930
6.1400,0.4398,0.7879,0.2758,0.944
6.1430,0.3343,0.8363,0.1274,0.910
6.1490,0.2736,0.6798,0.1055,0.740
6.1610,0.1106,0.3006,0.1030,0.336
6.1690,-0.2647,-0.1588,0.0330,0.310
6.1780,-0.6460,-0.4996,-0.0665,0.819
6.1880,-0.8254,-0.5843,-0.1592,1.024
6.1980,-0.9011,-0.4686,-0.3119,1.062
6.2210,-0.9162,-0.1628,-0.5582,1.085
6.2270,-0.6892,0.2026,-0.8533,1.115
6.2290,-0.2594,0.4147,-0.9192,1.041
6.2410,0.1698,0.3654,-0.7101,0.816
6.2480,0.4739,0.1867,-0.3004,0.591
6.2570,0.4715,-0.0428,-0.0787,0.480
6.2680,0.1975,-0.2225,-0.1495,0.333
6.2780,-0.1640,-0.1956,-0.3758,0.454
6.2890,-0.6170,-0.0517,-0.6578,0.903
6.2980,-0.8703,0.1232,-0.7855,1.179
6.3180,-0.9838,0.3511,-0.8913,1.373
6.3250,-0.8338,0.5208,-0.9163,1.344
6.3440,-0.5174,0.4434,-0.7256,0.995
6.3490,-0.1139,0.3304,-0.4466,0.567
6.3510,0.1831,0.0878,-0.2709,0.339
6.3590,0.2666,-0.1709,-0.3336,0.460
6.3700,0.2510,-0.2734,-0.5197,0.639
6.3800,0.1296,-0.2794,-0.6682,0.736
6.3900,-0.0755,-0.1930,-0.7525,0.781
6.3990,-0.2184,-0.1135,-0.7802,0.818
6.4090,-0.3034,-0.1159,-0.8447,0.905
6.4200,-0.3444,-0.1284,-0.8523,0.928
6.4460,-0.3971,-0.0744,-0.7201,0.826
6.4490,-0.5411,0.0541,-0.4328,0.695
6.4510,-0.7062,0.1537,0.0250,0.723
6.4580,-0.6766,0.2538,0.4169,0.834
6.4700,-0.3977,0.2910,0.7470,0.895
6.4820,-0.1663,0.2748,1.0001,1.050
6.4890,0.1861,0.3347,1.3711,1.424
6.4990,0.1128,0.2578,1.7944,1.816
6.5090,-0.0852,0.1620,2.0595,2.068
6.5220,0.0134,0.1462,2.1210,2.126
6.5470,0.0101,0.1383,2.0485,2.053
6.5500,0.6034,0.4009,1.0648,1.288
6.5540,0.7881,0.4553,0.3317,0.969
6.5580,0.9683,0.4594,-0.3252,1.120
6.5690,0.9745,0.5040,-0.6437,1.272
6.5820,0.5918,0.4528,-0.5809,0.945
6.5890,0.1180,0.2532,-0.1356,0.310
6.5990,-0.3832,-0.1236,0.4918,0.636
6.6090,-0.8185,-0.4488,0.8361,1.253
6.6180,-1.2881,-0.4722,0.8892,1.635
6.6370,-1.5670,-0.2346,0.7709,1.762
6.6440,-1.6650,0.1457,0.6217,1.783
6.6640,-1.5748,0.4645,0.4859,1.712
6.6690,-1.4752,0.5637,0.1154,1.583
6.6700,-1.2770,0.3633,-0.1165,1.333
6.6780,-0.8981,0.1832,0.0298,0.917
6.6900,-0.5828,0.0334,0.3986,0.707
6.6990,-0.1684,0.0845,0.8832,0.903
6.7090,0.0857,0.1317,1.2039,1.214
6.7210,0.0944,0.0884,1.3608,1.367
6.7460,-0.0958,0.0745,1.2773,1.283
6.7500,-0.5808,0.1698,0.7964,1.000
6.7520,-1.2273,0.2305,0.0925,1.252
6.7580,-2.0721,0.2364,-0.6974,2.199
6.7710,-2.7217,0.0281,-1.2725,3.005
6.7780,-2.9780,-0.2766,-1.5395,3.364
6.7890,-2.8697,-0.5538,-1.5720,3.319
6.8000,-2.6212,-0.6442,-1.5301,3.103
6.8090,-2.1733,-0.6428,-1.5836,2.765
6.8200,-1.4709,-0.4535,-1.8725,2.424
6.8290,-0.7211,-0.3425,-2.1647,2.307
6.8410,0.1244,-0.2168,-2.3933,2.406
6.8680,0.9119,-0.0418,-2.6436,2.797
6.8720,1.2314,0.1393,-2.8421,3.101
6.8750,1.1396,0.4020,-2.7763,3.028
6.8780,0.8269,0.6250,-2.3667,2.584
6.8890,0.3940,0.7281,-1.5798,1.784
6.9110,-0.0288,0.7063,-0.8629,1.115
6.9170,-0.2745,0.6039,-0.1275,0.675
6.9180,-0.3259,0.4633,0.3309,0.656
6.9280,-0.0834,0.1729,0.3943,0.439
6.9370,0.2664,-0.1549,-0.0848,0.320
6.9490,0.2522,-0.7279,-0.7018,1.042
6.9570,-0.1556,-1.2485,-1.2082,1.744
6.9680,-0.8235,-1.6156,-1.8140,2.565
6.9770,-1.1522,-1.6272,-2.3570,3.087
6.9890,-1.2664,-1.4404,-2.7591,3.360
7.0030,-1.2379,-1.2183,-2.5057,3.049
7.0100,-1.1285,-1.1084,-2.1201,2.645
7.0200,-0.8025,-1.2117,-2.1487,2.594
7.0290,-0.1514,-1.4954,-2.6156,3.017
7.0440,0.3938,-1.7969,-3.1966,3.688
7.0490,0.5547,-2.0904,-3.9343,4.490
7.0710,0.1453,-2.2458,-4.4806,5.014
7.0760,-1.1683,-2.5228,-4.6154,5.388
7.0800,-3.2784,-3.3503,-4.5254,6.515
7.0890,-5.2511,-4.9231,-3.8836,8.179
7.1000,-7.1589,-7.2252,-2.1489,10.396
7.1090,-8.5892,-8.6099,-0.5050,12.172
7.1240,-9.4964,-8.5932,-1.3136,12.874
7.1290,-8.7494,-7.0686,-4.5475,12.132
7.1430,-6.1568,-4.6009,-7.8661,10.998
7.1480,-4.8066,-3.2667,-8.4725,10.274
7.1570,-3.7972,-2.7754,-7.6620,8.990
7.1690,-2.7202,-3.3497,-6.7270,7.992
7.1770,-1.3751,-5.0555,-5.5059,7.600
7.1890,-0.4043,-6.7354,-3.4616,7.584
7.1980,0.4020,-8.2746,-1.2286,8.375
7.2090,1.2254,-9.0210,0.5103,9.118
7.2290,2.4932,-8.8381,2.7171,9.577
7.2360,3.8367,-7.7270,5.2414,10.095
7.2390,4.9726,-5.9237,8.5990,11.565
7.2680,5.1715,-4.4870,11.0275,12.980
7.2730,4.5801,-3.1641,12.8893,14.040
7.2760,3.7006,-2.1061,13.1372,13.810
7.2800,2.6845,-0.6917,8.6128,9.048
7.2900,1.8144,0.1180,-0.1766,1.827
7.2980,1.8088,0.1982,-8.2973,8.494
7.3100,2.5308,-0.3018,-9.3623,9.703
7.3250,2.9576,-0.8563,-6.1824,6.907
7.3290,2.9882,-0.9005,-5.9075,6.681
7.3520,2.3806,-1.3075,1.5950,3.150
7.3550,1.6114,-0.4624,5.0306,5.303
7.3580,1.1429,0.7086,6.9013,7.031
7.3710,0.3479,1.9236,6.7964,7.072
7.3780,-0.0970,2.7404,6.1604,6.743
7.3910,-0.0860,3.4614,5.7366,6.701
7.3980,0.3573,3.9527,6.0896,7.269
7.4090,1.0296,4.2666,6.9118,8.188
7.4240,1.4796,4.2005,7.3994,8.636
7.4290,1.8389,3.9763,7.5920,8.765
7.4460,2.1036,3.9250,7.4903,8.714
7.4510,2.2221,4.0577,7.4903,8.804
7.4590,2.0076,4.2611,7.8944,9.193
7.4740,1.1183,4.6267,8.7736,9.982
7.4780,0.3500,4.8905,9.3820,10.586
7.4910,-0.3490,5.1830,9.3815,10.724
7.4980,-0.4838,5.5012,8.6547,10.267
7.5090,-0.2505,6.0825,6.6091,8.986
7.5270,0.7085,7.1497,4.2147,8.330
7.5300,1.5292,8.5341,1.7575,8.846
7.5500,1.1443,9.5579,-0.1067,9.627
7.5510,-0.5167,9.6187,-1.8936,9.817
7.5580,-2.5697,7.7352,-4.0894,9.119
7.5710,-4.5156,4.5398,-6.5491,9.159
7.5770,-6.1413,0.9037,-8.6321,10.632
7.5900,-6.5000,-2.4782,-8.4458,10.942
7.5980,-5.8958,-5.8449,-5.4745,9.945
7.6120,-4.9727,-7.9063,-6.7370,11.516
7.6220,-5.0244,-7.8484,-6.8355,11.557
7.6430,-3.2762,-11.0134,-17.2831,20.754
7.6470,3.7524,-13.7040,-4.0700,14.780
7.6510,10.6955,-14.5477,13.5276,22.562
7.6790,13.5270,-16.9774,7.9870,23.130
7.6830,9.2956,-15.6106,2.0229,18.281
7.6880,5.2627,-9.3331,11.8136,15.949
7.6920,3.2825,-4.1841,13.1359,14.172
7.7080,3.2455,0.4887,10.3157,10.825
7.7090,4.9041,4.1766,5.4457,8.435
7.7310,5.7946,6.1016,6.8771,10.867
7.7320,6.5275,6.5539,8.6570,12.669
7.7380,6.7267,7.0233,8.6366,13.006
7.7480,6.7473,7.3814,7.8454,12.711
7.7570,6.8499,6.6353,6.7694,11.695
7.7680,5.2829,4.9906,4.6535,8.630
7.7780,4.3711,4.0424,3.1638,6.742
7.7930,4.3412,3.3548,2.4504,6.009
7.7990,4.3493,2.2611,1.6230,5.164
7.8090,3.5842,0.7763,1.6135,4.007
7.8180,2.5142,-1.5241,2.0558,3.588
7.8310,1.3456,-3.4391,2.8847,4.686
7.8610,0.5020,-4.8094,5.0365,6.982
7.8650,-0.9681,-5.7725,5.7139,8.180
7.8680,-2.6008,-5.7397,5.9686,8.679
7.8720,-4.6993,-4.6542,4.5857,8.048
7.8790,-6.2553,-3.6617,2.3048,7.606
7.8910,-8.2111,-2.7752,-1.1847,8.748
7.8990,-8.6915,-1.9412,-2.6567,9.293
7.9080,-7.9315,-0.4558,-3.2648,8.589
7.9170,-7.0122,1.1600,-3.3767,7.869
7.9300,-6.0227,2.6888,-3.1983,7.330
7.9490,-5.5936,3.0990,-2.0881,6.727
7.9500,-5.6392,2.5906,-0.2722,6.212
7.9570,-5.2540,2.4381,0.8172,5.849
7.9680,-4.1279,2.7005,1.6076,5.188
7.9780,-2.9727,3.0058,2.0522,4.699
7.9920,-1.5380,3.1764,2.0936,4.103
7.9970,0.7334,2.7936,1.2078,3.131
8.0090,5.5210,1.1167,-2.2259,6.057
8.0190,9.2624,-0.7934,-7.9897,12.258
8.0320,8.6001,-2.1352,-9.5900,13.057
8.0380,4.6244,-2.7222,-9.0590,10.529
8.0650,0.7070,-3.3603,-8.7417,9.392
8.0690,-1.6849,-3.8081,-8.7083,9.653
8.0730,-1.7100,-3.3055,-7.4795,8.354
8.0800,-1.2768,-2.6532,-5.3844,6.137
8.0930,-2.5273,-2.5686,-3.1978,4.818
8.0980,-4.7527,-3.1512,-1.7903,5.977
8.1110,-7.4333,-4.1694,-1.6623,8.683
8.1190,-9.1109,-4.9156,-2.6075,10.676
8.1300,-10.6443,-5.3612,-4.9649,12.911
8.1390,-11.8514,-5.3863,-7.3300,14.940
8.1650,-13.1089,-6.1791,-7.9251,16.518
8.1660,-14.8061,-8.4393,-4.9718,17.753
8.2010,-14.7608,-9.5195,-0.3159,17.567
8.2020,-12.7795,-8.8140,2.1730,15.676
8.2020,-9.9873,-7.9222,0.6391,12.764
8.2030,-5.5530,-6.6729,-2.2142,8.959
8.2130,-1.8198,-6.3061,-6.5054,9.241
8.2170,2.1655,-6.9375,-6.5596,9.790
8.2430,3.1841,-7.3746,1.5492,8.181
8.2440,2.0270,-7.0978,7.2807,10.368
8.2490,2.2807,-7.3472,9.0315,11.864
8.2600,3.5840,-8.3267,9.5572,13.173
8.2690,5.7865,-9.1237,9.1400,14.152
8.2820,7.0239,-9.5816,8.5255,14.623
8.2890,5.2526,-9.8462,4.3676,11.984
8.3140,1.3824,-8.7264,-4.2942,9.823
8.3180,0.1263,-6.9419,-4.8544,8.472
8.3200,1.1850,-4.4730,-2.0825,5.074
8.3290,2.3275,-2.5251,0.9983,3.576
8.3380,4.5295,-0.1758,3.1815,5.538
8.3530,5.9500,1.5768,4.0577,7.372
8.3580,6.0323,1.4916,4.3211,7.569
8.3690,5.3613,3.4317,6.7886,9.306
8.3960,4.0184,3.8370,7.8659,9.630
8.4020,2.7316,4.1667,7.8547,9.302
8.4140,1.7917,4.6121,6.8587,8.457
8.4180,0.7399,4.7943,6.3140,7.962
8.4210,0.2353,5.0544,6.3625,8.129
8.4280,0.0995,5.4230,6.8363,8.727
8.4380,1.1678,5.9346,7.7118,9.801
8.4520,2.6732,6.8305,8.9923,11.604
8.4700,3.8039,7.6499,9.9640,13.125
8.4710,4.0018,8.1004,10.3329,13.726
8.4780,3.4988,8.1839,9.5624,13.064
8.4890,2.6907,8.1306,8.6329,12.160
8.4970,2.2166,8.0310,8.1653,11.665
8.5110,2.5913,8.0793,7.1785,11.114
8.5180,2.9698,8.4359,5.8404,10.681
8.5290,2.7534,8.8199,3.6828,9.947
8.5380,1.6431,8.6465,0.9798,8.856
8.5530,-1.1938,6.7855,-6.0728,9.184
8.5830,-5.2699,3.3106,-14.8533,16.104
8.5870,-7.0000,-0.2116,-14.8511,16.420
8.5910,-5.4724,-2.8517,-12.4532,13.898
8.5940,-2.3122,-5.2235,-5.2654,7.769
8.6020,-1.3697,-7.0692,-3.0039,7.802
8.6110,-2.0622,-7.9190,-4.8580,9.516
8.6170,-3.4058,-7.1701,-6.8066,10.457
8.6280,-4.2651,-4.6689,-3.7937,7.374
8.6380,-2.6444,-2.0134,1.7956,3.778
8.6490,1.2676,-0.4607,10.5395,10.625
8.6570,4.6962,0.1289,16.8612,17.503
8.6730,10.3145,-3.9106,4.5558,11.935
8.6780,10.8814,-15.3626,-21.4443,28.535
8.6880,7.6750,-14.8380,-1.5097,16.774
8.7020,4.6201,-11.9611,14.6175,19.444
8.7370,2.8645,-8.8069,15.8569,18.363
8.7420,4.9158,-2.9867,10.7254,12.170
8.7460,6.1596,0.1586,8.9492,10.865
8.7480,6.9653,1.9916,7.7067,10.577
8.7510,6.5284,3.1700,6.8570,9.984
8.7660,5.2894,3.7705,6.7875,9.395
8.7930,3.7849,3.8813,6.8266,8.717
8.7940,2.8413,3.3777,5.6429,7.164
8.7950,3.0676,2.5455,3.1157,5.059
8.7970,2.8100,1.7508,1.2687,3.546
8.8220,1.6085,1.2404,1.1106,2.315
8.8230,1.1369,0.6777,1.0864,1.712
8.8280,0.8854,0.2907,1.0829,1.429
8.8370,0.3220,-0.0731,1.6552,1.688
8.8490,-0.6166,-0.4164,2.2489,2.369
8.8580,-2.3208,-0.2374,2.7494,3.606
8.8720,-3.6764,0.4067,1.9310,4.173
8.8800,-5.4327,0.1946,-1.4877,5.636
8.8890,-6.6343,-0.5960,-2.8718,7.254
8.9020,-6.6898,-0.6881,-2.5100,7.178
8.9090,-6.4696,-0.1014,-1.8413,6.727
8.9170,-6.2262,0.9556,-1.1770,6.408
8.9320,-5.7654,2.0752,-0.7023,6.168
8.9370,-4.9846,2.9391,-0.5177,5.810
8.9530,-3.6759,3.1041,-0.6186,4.851
8.9570,-2.6085,2.6342,-1.1510,3.882
8.9780,-1.6089,1.8612,-1.5756,2.921
8.9790,-0.6153,1.0476,-2.0772,2.406
8.9890,1.1549,-0.4104,-2.9277,3.174
9.0010,2.9186,-1.4586,-3.4655,4.760
9.0110,5.0377,-1.7916,-5.2120,7.467
9.0200,6.5107,-1.8207,-7.6691,10.223
9.0310,6.2244,-2.0429,-7.9122,10.272
9.0370,3.5944,-2.4020,-4.9107,6.543
9.0540,0.1823,-2.8038,-2.6143,3.838
9.0570,-1.8996,-3.2605,-1.8457,4.201
9.0940,-3.5801,-3.4906,-1.7146,5.286
9.0950,-5.5462,-3.7940,-1.7519,6.944
9.0960,-5.6716,-3.8072,-1.7209,7.044
9.1000,-8.9686,-5.2186,-3.0027,10.802
9.1090,-7.7116,-5.6484,-4.2612,10.466
9.1190,-5.4196,-5.3281,-5.8676,9.602
9.1310,-3.6166,-4.6309,-8.0027,9.928
9.1390,-3.1519,-3.8850,-9.9880,11.171
9.1480,-4.8954,-3.7220,-11.9981,13.482
9.1570,-7.7117,-4.9963,-11.5915,14.792
9.1680,-10.0172,-7.8212,-7.4403,14.727
9.1940,-9.6178,-9.0025,-2.3130,13.375
9.1950,-8.4695,-8.7671,0.3662,12.195
9.2270,-8.5531,-8.7984,-1.9321,12.422
9.2280,-6.5181,-8.4047,-6.2589,12.341
9.2290,-3.2963,-7.5657,-3.1664,8.839
9.2520,-0.7724,-7.0355,3.9037,8.083
9.2560,1.5019,-6.2343,9.4108,11.388
9.2580,2.1648,-5.9015,13.7893,15.155
9.2630,2.1959,-5.9910,15.3012,16.578
9.2690,2.2389,-5.8707,14.7918,16.071
9.2850,1.7887,-5.9792,6.5614,9.055
9.2890,-0.7892,-7.3435,-12.8886,14.855
9.3090,-1.9436,-7.6133,-13.4358,15.565
9.3100,-0.6054,-6.9468,-5.3377,8.782
9.3190,2.3097,-4.9065,3.3614,6.380
9.3300,5.9373,-2.4325,6.2292,8.943
9.3400,8.3173,0.1666,5.3599,9.896
9.3480,8.1420,1.9597,4.7690,9.637
9.3570,5.8484,3.0640,4.6993,8.104
9.3680,3.5688,3.3044,5.0203,6.990
9.3950,1.2266,3.3859,5.4439,6.527
9.3960,-0.1998,3.5522,6.3925,7.316
9.3990,-0.4975,4.0460,7.3303,8.388
9.4080,-0.4467,4.2150,8.1530,9.189
9.4200,0.1839,4.3720,8.1469,9.248
9.4300,0.9401,4.5593,7.1907,8.566
9.4380,1.7787,4.6471,6.8813,8.492
9.4500,2.6545,4.8157,8.9952,10.543
9.4590,3.4523,5.1863,11.3513,12.949
9.4680,3.4274,5.2728,11.5470,13.149
9.4770,3.0185,5.2802,9.7238,11.469
9.4940,2.9806,5.7334,7.4980,9.898
9.4980,3.2230,6.8099,6.2329,9.778
9.5090,3.3912,8.4289,5.7555,10.755
9.5170,2.6382,9.4218,5.2658,11.111
9.5330,0.4819,9.5648,3.8337,10.316
9.5410,-1.8212,8.7598,2.3300,9.246
9.5630,-3.9351,7.0512,-0.9359,8.129
9.5670,-5.4704,5.0025,-6.5500,9.892
9.5710,-5.3691,2.7728,-11.2498,12.770
9.5790,-4.5634,0.2632,-14.2476,14.963
9.6070,-2.8873,-3.0928,-7.3641,8.493
9.6110,0.4524,-5.1314,-2.8784,5.901
9.6150,1.2819,-7.1161,-3.3876,7.985
9.6180,1.3461,-8.2362,-6.6539,10.673
9.6350,1.8290,-7.2345,-9.0121,11.700
9.6370,1.5552,-4.5048,-3.5618,5.950
9.6680,1.6608,-1.6010,3.7865,4.434
9.6690,3.3401,-0.3331,9.8368,10.394
9.6690,6.5904,-1.7537,17.4334,18.720
9.6770,7.4967,-3.7982,14.7497,16.976
9.6880,7.6228,-9.4137,5.4111,13.267
9.6980,4.3916,-12.9931,-1.6007,13.808
9.7090,2.6787,-13.2540,0.2118,13.524
9.7210,4.0605,-10.6969,6.9999,13.413
9.7290,4.0926,-10.6055,6.6630,13.177
9.7470,6.2200,-0.2975,3.9585,7.379
9.7500,5.8052,3.1761,4.3393,7.913
9.7570,4.4575,3.8602,8.1488,10.059
9.7710,2.4548,3.8588,9.8028,10.817
9.7770,1.6054,3.9551,8.7290,9.717
9.7960,1.5346,3.7307,5.8356,7.094
9.7980,1.2096,2.4072,3.5990,4.496
9.8080,0.5268,0.7843,3.1330,3.272
9.8220,-0.4087,-1.2009,2.3117,2.637
9.8280,-1.5830,-2.5393,1.2312,3.236
9.8370,-2.7476,-3.0510,-0.4668,4.132
9.8500,-3.2607,-2.4471,-1.4881,4.340
9.8590,-3.9502,-1.4847,-1.5759,4.505
9.8820,-4.7296,-0.6344,-2.1278,5.225
9.8860,-5.1465,0.4131,-2.2701,5.640
9.8890,-5.2815,1.4137,-1.4935,5.668
9.9010,-5.0694,2.5896,-0.4760,5.712
9.9100,-4.6146,3.5187,0.0835,5.804
9.9170,-3.8303,4.5011,0.8180,5.967
9.9280,-3.1124,5.1147,1.2344,6.113
9.9370,-2.6671,5.0745,1.3183,5.882
9.9500,-2.6756,3.8411,1.1797,4.827
9.9580,-2.4760,2.2656,0.8954,3.473
9.9870,-2.0606,0.5501,0.9432,2.332
9.9880,-0.8748,-2.1367,0.7369,2.424
9.9890,0.6969,-3.0773,-3.4659,4.687
10.0000,2.4544,-2.0832,-9.3166,9.857
10.0080,3.4131,-0.6048,-10.5060,11.063
10.0190,3.0312,0.0853,-6.0462,6.764
10.0280,2.0069,-0.0276,-2.4007,3.129
10.0380,0.9736,-0.9656,-1.1890,1.815
10.0600,-0.8153,-2.3584,-1.7762,3.063
10.0650,-2.8028,-3.2017,-2.8589,5.126
10.1040,-3.8099,-2.6029,-4.0771,6.157
10.1050,-4.4157,-2.2028,-4.3533,6.580
10.1060,-4.9166,-2.4254,-3.8889,6.722
10.1070,-5.1804,-2.9452,-3.5896,6.957
10.1080,-5.2181,-2.9441,-3.5529,6.966
10.1170,-4.5199,-4.0512,-3.7040,7.111
10.1280,-4.2913,-3.9908,-5.1458,7.799
10.1380,-4.9737,-3.7454,-7.0365,9.396
10.1550,-6.8056,-3.9708,-7.7529,11.054
10.1590,-8.7427,-5.4134,-6.1411,11.977
10.1940,-10.9998,-7.8543,-3.1379,13.876
10.1990,-12.1049,-9.2595,0.2433,15.242
10.2010,-12.1295,-9.3601,2.1383,15.470
10.2030,-11.9430,-8.8145,-0.2687,14.846
10.2140,-8.9194,-7.0041,-8.7182,14.305
10.2400,-3.3817,-5.9300,-14.6443,16.157
10.2410,0.4077,-6.1883,-3.4502,7.097
10.2420,2.6033,-6.6433,5.4855,9.000
10.2660,4.4553,-7.1027,9.3989,12.595
10.2670,4.2451,-7.4081,10.7913,13.761
10.2680,5.0213,-7.3142,10.3906,13.663
10.2780,5.7426,-7.1237,9.1702,12.954
10.2890,7.1366,-7.0359,3.9457,10.770
10.3070,7.8036,-7.0001,-4.4663,11.395
10.3100,5.7832,-6.3209,-5.4836,10.172
10.3350,3.9536,-5.3331,-2.2841,7.021
10.3400,2.5690,-4.0089,1.7883,5.086
10.3440,2.5900,-2.2337,2.8906,4.478
10.3530,3.6838,-0.2104,2.8690,4.674
10.3590,4.1956,1.8347,3.4962,5.761
10.3750,4.2092,3.2313,4.8518,7.190
10.3790,3.2091,4.1929,6.5061,8.379
10.4140,1.6619,4.3928,7.8633,9.159
10.4150,0.5227,4.4842,8.3349,9.479
10.4150,-0.0323,4.5943,7.9260,9.161
10.4170,-0.3632,4.7203,6.4286,7.984
10.4290,-0.5501,4.8009,5.2722,7.152
10.4380,-0.5001,4.8385,5.6809,7.479
10.4510,0.3459,5.0181,7.5465,9.069
10.4570,1.7379,5.5899,9.2357,10.935
10.4910,2.8483,6.2042,9.7999,11.943
10.4940,3.2947,6.7913,9.9158,12.462
10.4970,2.8769,6.9938,9.3913,12.058
10.5000,2.3403,7.2253,8.4959,11.396
10.5090,2.0821,7.6625,7.4670,10.900
10.5210,2.5897,8.3105,6.3655,10.784
10.5290,3.3363,8.8909,5.1411,10.799
10.5390,3.5416,9.2591,3.6472,10.563
10.5580,2.7676,9.0187,2.0563,9.655
10.5600,0.4714,7.1561,-2.4657,7.584
10.5990,-2.1364,4.2944,-8.6215,9.866
10.6020,-4.1509,0.8126,-14.5419,15.145
10.6050,-3.8013,-2.5280,-18.1474,18.713
10.6070,-2.3266,-5.8579,-9.8218,11.670
10.6100,-0.9924,-8.7172,-2.6750,9.172
10.6200,-1.9277,-10.3263,-2.1824,10.729
10.6280,-3.0634,-10.0754,-8.1282,13.303
10.6410,-3.1149,-9.4035,-11.6678,15.306
10.6730,1.2191,-6.9336,0.2004,7.043
10.6740,6.6608,-5.8724,10.1491,13.485
10.6750,11.2779,-8.6369,8.3479,16.476
10.7080,12.2595,-11.1910,5.7731,17.575
10.7090,8.0906,-11.4721,4.7618,14.824
10.7100,3.5835,-8.6898,3.2719,9.953
10.7110,3.4120,-8.6448,3.1539,9.814
10.7390,4.4765,0.3934,5.4178,7.039
10.7390,4.1813,2.4809,9.4939,10.666
10.7400,4.7194,3.6379,10.6500,12.204
10.7490,4.4519,4.5491,10.4875,12.268
10.7580,3.4451,4.9874,10.7122,12.308
10.7740,2.5610,4.9643,9.9926,11.448
10.7780,2.1547,4.5525,7.5154,9.047
10.8030,1.6511,3.4695,4.0491,5.582
10.8050,1.3595,2.2619,1.1660,2.885
10.8080,1.0592,0.8422,-1.1083,1.749
10.8190,0.5918,-0.3811,-1.9961,2.117
10.8290,-0.1339,-1.6125,-0.8395,1.823
10.8380,-0.7938,-2.3396,0.9807,2.658
10.8490,-1.4923,-2.5392,2.6416,3.956
10.8600,-1.7727,-1.8264,3.1088,4.018
10.9200,-2.1904,1.1112,6.6762,7.114
10.9250,-3.9665,1.4601,0.9357,4.329
10.9280,-6.0568,0.3201,-3.8380,7.178
10.9600,-6.5414,-0.2683,-4.5291,7.961
10.9620,-5.9886,0.0596,-3.4014,6.887
10.9660,-4.9116,0.7103,-1.9955,5.349
10.9690,-4.3887,1.0534,-1.1115,4.648
10.9710,-3.7729,1.3820,-0.7774,4.093
10.9730,-2.9408,1.7170,-0.7097,3.479
10.9740,-1.6003,2.1676,-0.5849,2.757
10.9740,-0.5553,2.4428,-0.9811,2.690
10.9770,0.7808,2.4743,-1.8146,3.166
10.9880,2.4171,1.9251,-3.8872,4.966
10.9970,3.2891,0.5892,-7.4198,8.137
11.0240,2.3592,-0.4809,-7.8105,8.173
11.0250,1.2069,-1.3903,-5.3330,5.642
11.0290,0.2600,-1.8177,-2.8330,3.376
11.0370,0.1732,-1.8281,-2.8382,3.380
11.0480,-1.3252,-2.2808,-3.5701,4.439
11.0580,-1.1234,-2.0530,-5.7422,6.201
11.1090,-0.5680,-1.7332,-6.2656,6.526
11.1120,-0.7388,-1.6246,-5.5572,5.837
11.1140,-1.8213,-2.0428,-4.4917,5.260
11.1170,-3.6121,-2.9723,-2.9696,5.541
11.1200,-5.4198,-3.8116,-2.0045,6.922
11.1220,-6.8228,-4.3276,-2.3059,8.402
11.1290,-7.5047,-4.2085,-4.0354,9.503
11.1380,-8.2298,-3.8942,-7.5974,11.858
11.1480,-9.4392,-4.9246,-10.1650,14.720
11.1600,-11.4609,-8.0573,-8.2480,16.257
11.2130,-11.8845,-10.3704,-1.6479,15.859
11.2140,-10.7104,-10.3213,4.2904,15.481
11.2150,-9.8308,-10.2133,2.4181,14.381
11.2150,-7.6498,-9.2930,-7.3257,14.091
11.2160,-2.0020,-7.4225,-14.7976,16.675
11.2560,1.7092,-6.9662,-7.1145,10.103
11.2570,3.6865,-7.0864,5.3475,9.613
11.2580,3.6790,-7.5309,10.9169,13.763
11.2590,3.5145,-7.7293,10.9953,13.892
11.2600,4.4910,-7.3754,9.4575,12.807
11.2960,5.4651,-7.0147,7.7585,11.801
11.3000,6.0706,-6.8176,5.2172,10.514
11.3030,5.1561,-7.0179,-2.7200,9.123
11.3060,2.8398,-6.7524,-4.4678,8.580
11.3100,1.0777,-6.0954,-1.4743,6.363
11.3280,0.2826,-5.0915,1.5809,5.339
11.3700,0.6187,-3.4929,2.5016,4.341
11.3730,2.4646,-1.4237,2.2749,3.644
11.3750,5.1496,1.1823,3.2181,6.186
11.3770,5.9920,2.8809,4.8314,8.219
11.3790,5.7111,4.1232,6.9197,9.874
11.3810,4.4659,4.5635,7.5700,9.903
11.3910,2.8760,4.8016,7.3101,9.207
11.3980,1.8187,4.8018,7.1778,8.825
11.4160,0.8199,4.7169,7.0026,8.483
11.4170,0.1670,4.6455,6.6422,8.107
11.4280,0.3387,4.7513,6.5077,8.065
11.4540,0.7970,4.8405,6.7332,8.331
11.4550,1.8805,5.0946,7.4283,9.202
11.4580,3.0323,5.5396,8.4857,10.578
11.4710,3.6298,5.9353,9.5597,11.823
11.4780,3.6568,6.4060,10.2881,12.659
11.4910,3.0630,6.6836,9.8428,12.285
11.4970,2.3687,7.0117,8.4061,11.200
11.5260,2.1905,7.3128,7.6069,10.777
11.5320,2.8209,8.1039,6.7194,10.899
11.5350,3.3840,8.9887,5.7948,11.217
11.5390,3.6283,9.8279,4.3180,11.331
11.5490,2.5533,9.6760,2.6068,10.341
11.5600,-0.5433,7.4139,-1.7287,7.632
11.6020,-3.6026,4.1170,-8.8760,10.427
11.6050,-4.9734,0.4549,-17.0463,17.763
11.6070,-4.3086,-3.5716,-21.9128,22.616
11.6090,-2.6619,-7.5198,-7.2907,10.807
11.6120,-3.1115,-10.8740,0.3759,11.317
11.6260,-4.3113,-12.0974,-1.5422,12.935
11.6280,-3.7076,-11.2675,-7.4882,14.028
11.6610,-2.2769,-7.9843,-6.3188,10.434
11.6620,1.1566,-3.9644,0.9842,4.245
11.6630,5.4569,-2.0042,9.0858,10.786
11.6720,10.1484,-2.8958,11.5301,15.631
11.6770,14.3133,-7.0781,6.8755,17.385
11.7020,11.2730,-10.8576,1.2468,15.701
11.7040,4.0865,-11.2333,0.1403,11.954
11.7090,1.4220,-9.1418,5.2937,10.659
11.7340,2.0045,-5.0620,8.0341,9.705
11.7380,4.6273,-0.5349,8.3157,9.531
11.7400,5.6576,1.8994,8.1462,10.098
11.7480,5.9458,3.5546,8.0179,10.596
11.7590,5.4607,4.4673,8.8600,11.326
11.7760,4.0895,4.7238,9.9011,11.708
11.7790,3.0251,4.4014,8.4852,10.026
11.8170,2.0854,3.6251,5.4682,6.884
11.8220,0.9644,2.4906,3.5177,4.417
11.8250,0.2641,0.8276,2.3552,2.510
11.8260,0.2607,-0.6361,1.6238,1.763
11.8300,0.4676,-1.7647,1.2110,2.191
11.8380,0.5315,-2.2295,1.5871,2.788
11.8490,0.4541,-2.1410,2.1626,3.077
11.8580,0.4144,-2.1443,1.9852,2.951
11.8750,-1.1758,0.8682,4.0637,4.319
11.8780,-3.1474,0.8265,-0.7525,3.340
11.9200,-4.1911,0.6984,-3.1444,5.286
11.9330,-4.7985,1.1438,-2.8567,5.700
11.9350,-5.1980,1.7854,-2.0237,5.857
11.9380,-5.3866,2.3850,-1.7601,6.148
11.9400,-5.4056,2.9106,-1.9545,6.443
11.9420,-4.8498,3.2284,-2.2291,6.238
11.9480,-4.4751,3.1746,-3.6261,6.577
11.9570,-3.4962,2.3850,-4.4552,6.145
12.0020,-2.3836,0.5178,-3.2296,4.047
12.0020,-1.6105,-0.8854,-2.3898,3.015
12.0030,-0.7165,-1.4455,-2.2807,2.794
12.0040,0.1049,-0.9402,-1.8550,2.082
12.0090,0.9465,-0.5119,-1.3806,1.750
12.0180,1.4126,-0.0524,-1.8721,2.346
12.0290,2.1000,0.3296,-4.0206,4.548
12.0410,2.8358,0.2546,-6.9967,7.554
12.0500,2.4440,-0.4035,-7.5233,7.921
12.0580,0.3148,-1.7997,-5.8608,6.139
12.0790,-2.0979,-2.8402,-3.1267,4.716
12.0830,-4.7983,-3.1742,-0.5534,5.780
12.1360,-6.2958,-3.0736,0.5559,7.028
12.1390,-6.9593,-2.7348,0.4831,7.493
12.1410,-6.9080,-2.6900,-0.9136,7.469
12.1430,-7.0034,-3.2512,-3.5371,8.493
12.1450,-8.0380,-5.1729,-4.1583,10.424
12.1480,-9.3090,-8.1132,-0.4250,12.356
12.1500,-10.1313,-10.2829,2.1647,14.597
12.1630,-11.0703,-12.4363,-1.9994,16.769
12.1970,-10.5968,-12.8079,-10.9446,19.903
12.1990,-6.3640,-9.6474,-13.2043,17.548
12.1990,-1.6890,-6.7286,-12.1403,13.983
12.2000,2.1102,-5.0292,-9.1658,10.666
12.2290,3.2966,-4.5371,-6.0351,8.239
12.2300,3.5321,-4.7882,-2.3651,6.403
12.2300,2.9240,-5.7804,0.7152,6.517
12.2590,0.7937,-7.1105,5.4477,8.993
12.2600,-0.0568,-7.3702,7.4125,10.453
12.2600,0.8141,-6.9047,7.6993,10.374
12.2710,2.5910,-6.3536,7.8859,10.453
12.2780,4.4258,-5.8528,9.5073,12.010
12.2970,5.9483,-5.1616,10.6704,13.262
12.3020,7.7989,-4.5331,6.7126,11.244
12.3350,6.8322,-3.3491,-0.2366,7.613
12.3400,4.7166,-2.7363,-4.9577,7.370
12.3420,3.0239,-2.1364,-5.2270,6.405
12.3460,1.6477,-1.7668,-3.4004,4.171
12.3490,0.9066,-1.1519,0.1029,1.470
12.3590,1.5051,-0.1292,3.4458,3.762
12.3690,2.4375,1.0811,6.7566,7.264
12.3800,2.3136,1.7073,9.1283,9.570
12.4260,1.6587,2.1333,9.0653,9.459
12.4290,1.5491,2.4463,7.2832,7.838
12.4310,1.4160,2.6578,5.8142,6.548
12.4330,1.3375,2.8980,5.4730,6.336
12.4350,1.9150,3.4960,5.7599,7.005
12.4400,2.9661,4.1995,6.0645,7.951
12.4480,3.8087,4.8858,6.6333,9.076
12.4580,4.1563,5.4431,7.1028,9.867
12.4680,4.2202,6.0684,7.5382,10.557
12.4770,3.9371,6.5347,7.8630,10.956
12.5160,3.4487,7.0921,8.0166,11.245
12.5160,3.2004,7.5244,8.2382,11.607
12.5170,2.9116,7.8480,8.4028,11.861
12.5170,2.8756,8.1356,7.5814,11.486
12.5290,2.7708,8.5598,6.1085,10.875
12.5400,3.2854,9.0768,4.6292,10.706
12.5480,4.2893,9.6106,2.4127,10.797
12.5590,3.7275,9.2866,0.7491,10.035
12.5700,0.4359,7.2731,-1.9279,7.537
12.5810,-2.9790,4.3926,-6.7006,8.548
12.6420,-5.0161,1.8588,-13.2632,14.301
12.6450,-5.2376,-1.8165,-19.1207,19.908
12.6480,-4.1436,-4.3723,-11.3434,12.844
12.6510,-2.6890,-7.9041,-0.3103,8.355
12.6540,-1.7299,-10.2918,2.1162,10.649
12.6570,-1.3984,-10.5969,-3.7751,11.336
12.6590,-1.9166,-9.1958,-10.9430,14.422
12.6610,0.3350,-6.3799,-9.7237,11.635
12.6680,6.5888,-3.8984,5.4769,9.413
12.6770,12.6346,-5.8006,8.5152,16.303
12.7100,15.2299,-10.9829,-0.2388,18.778
12.7110,7.6736,-12.6104,3.2803,15.122
12.7110,1.3856,-10.1768,8.6995,13.460
12.7180,-1.1085,-6.0708,10.0977,11.834
12.7300,0.5781,-1.8239,9.4639,9.655
12.7400,3.1211,1.6368,8.1402,8.870
12.7500,4.5067,3.1441,7.5368,9.327
12.7600,5.0268,4.2477,6.3819,9.167
12.7700,5.1474,4.9919,5.7571,9.196
12.7830,4.3390,5.3848,5.2397,8.676
12.8430,3.0736,5.0186,4.5804,7.457
12.8450,2.5687,3.9158,2.7909,5.452
12.8480,2.7059,2.8675,1.5216,4.226
12.8500,2.1277,1.3713,0.8542,2.672
12.8500,1.3792,-0.4148,1.3693,1.987
12.8520,1.0584,-2.1408,2.0811,3.168
12.8540,0.2029,-3.5596,3.5771,5.050
12.8600,-0.8135,-4.2806,5.6344,7.123
12.8680,-1.0997,-3.7243,8.1490,9.027
12.8780,-1.3989,-1.4763,7.6646,7.930
12.8930,-3.9049,-1.1029,-3.7034,5.494
12.9030,-5.6889,-1.1132,-9.1333,10.818
12.9230,-5.7904,-0.2927,-8.5700,10.347
12.9240,-4.9946,0.7973,-5.7325,7.645
12.9280,-4.3090,1.5830,-2.4852,5.220
12.9390,-3.6260,2.0855,-0.9455,4.288
12.9490,-3.0536,2.5403,-0.1839,3.976
12.9580,-2.4347,2.8439,-0.1018,3.745
12.9690,-1.2813,3.3261,0.2409,3.573
12.9780,-0.2305,3.6908,0.7618,3.776
13.0410,0.4831,3.6069,1.8521,4.083
13.0430,1.1351,3.0201,2.4298,4.039
13.0450,2.1286,2.0105,1.0566,3.113
13.0470,2.7074,0.8955,-1.4715,3.209
13.0490,2.5604,-0.5642,-4.2783,5.018
13.0510,1.5086,-1.7075,-5.3677,5.831
13.0520,-0.0938,-2.4417,-5.3307,5.864
13.0580,-1.4674,-3.0159,-5.3414,6.307
13.0690,-2.9320,-3.8232,-6.3609,7.980
13.0840,-3.9511,-4.1979,-7.4270,9.402
13.1410,-4.4265,-3.2313,-7.3673,9.182
13.1460,-4.3957,-2.3156,-5.7925,7.631
13.1500,-4.4014,-2.2088,-3.1660,5.854
13.1520,-4.5690,-2.4940,-1.3502,5.378
13.1580,-4.7277,-2.6338,-0.3771,5.425
13.1610,-4.4979,-2.8021,-0.5175,5.325
13.1640,-4.2459,-3.1645,-2.1749,5.725
13.1660,-4.0154,-3.3143,-6.0355,7.971
13.1710,-4.3836,-3.3323,-9.5665,11.038
13.1790,-6.1862,-4.6287,-10.3811,12.941
13.2040,-8.5593,-7.1053,-8.1079,13.765
13.2080,-10.2014,-9.1307,-3.8930,14.234
13.2110,-9.8934,-9.0818,-0.5331,13.440
13.2170,-8.9647,-8.0314,-1.3166,12.108
13.2490,-7.2124,-6.3758,-5.7196,11.197
13.2500,-2.4726,-4.5667,-13.1499,14.138
13.2510,1.4022,-4.2843,-11.8429,12.672
13.2570,4.1219,-4.7748,-1.2598,6.432
13.2680,4.8488,-5.4256,6.6146,9.834
13.2780,4.2792,-6.3035,10.0244,12.591
13.3140,3.0507,-6.5983,10.5666,12.826
13.3150,2.6235,-6.2502,9.8436,11.952
13.3150,2.9781,-5.7637,8.6105,10.781
13.3190,2.8531,-5.8001,1.8084,6.712
13.3290,0.8811,-6.5889,-6.4526,9.264
13.3420,-1.9572,-7.2047,-6.6073,9.970
13.3490,-3.3629,-7.0578,-0.8184,7.861
13.3590,-2.5552,-5.7692,4.2711,7.619
13.3690,0.9186,-3.3316,4.0844,5.350
13.3830,5.0670,-0.2183,2.3032,5.570
13.4430,6.3343,1.1954,2.3278,6.854
13.4460,5.8822,2.0488,3.3944,7.094
13.4480,4.7304,2.2953,4.5111,6.928
13.4500,3.3838,2.1906,5.5956,6.896
13.4510,2.0954,2.2262,5.9066,6.651
13.4540,1.4169,2.3875,5.7789,6.411
13.4570,0.8936,2.8880,5.7800,6.523
13.4580,1.1549,3.6099,5.5461,6.717
13.4680,1.8066,4.4945,5.6643,7.453
13.4780,2.6205,5.2538,6.2344,8.564
13.5330,3.4533,6.1359,6.9719,9.909
13.5340,3.9043,6.9031,7.4676,10.893
13.5340,3.7641,7.4141,7.9876,11.530
13.5350,3.3553,7.7220,8.0334,11.637
13.5360,2.7326,7.7976,7.7171,11.306
13.5430,2.1397,7.5273,7.2775,10.687
13.5500,1.9650,7.2785,6.7081,10.091
13.5610,2.3821,7.4674,5.6321,9.652
13.5700,2.8554,7.9283,4.2400,9.433
13.5850,3.0960,8.2453,2.5809,9.178
13.6450,1.9965,7.9153,0.6631,8.190
13.6480,-0.2706,6.4448,-2.3296,6.858
13.6510,-2.7198,4.1525,-7.2653,8.799
13.6530,-3.9369,2.1030,-11.4036,12.246
13.6560,-4.6875,-0.9922,-15.1598,15.899
13.6590,-4.9229,-3.9810,-9.7287,11.607
13.6600,-4.4490,-7.1563,-3.1050,8.980
13.6620,-3.5688,-8.7525,-2.6224,9.809
13.6700,-2.6441,-8.7665,-7.3132,11.719
13.6840,-2.3392,-7.0343,-9.9135,12.379
13.7160,0.5188,-4.5983,-6.6591,8.109
13.7170,6.3719,-1.8473,8.1503,10.509
13.7170,10.7894,-3.3024,11.3133,15.978
13.7180,12.5693,-9.1613,4.0394,16.070
13.7280,7.8959,-13.0543,0.0059,15.256
13.7370,1.2992,-13.2835,4.5858,14.113
13.7570,-1.9362,-10.5584,7.4912,13.090
13.7610,0.1605,-4.3819,6.8325,8.119
13.8060,3.5564,0.6364,4.9645,6.140
13.8100,5.4577,3.3294,6.2257,8.924
13.8120,6.2135,4.8459,6.1436,9.992
13.8150,5.8844,5.8621,5.1474,9.772
13.8180,4.7239,6.1315,4.3533,8.880
13.8230,3.2068,6.0575,3.9955,7.934
13.8470,1.9891,5.1882,3.3708,6.499
13.8500,1.3028,3.6384,2.2106,4.452
13.8520,0.7669,1.9499,1.6831,2.688
13.8620,0.3366,-0.3687,1.4171,1.502
13.8690,-0.2865,-2.3230,2.0729,3.127
13.9060,-1.0104,-4.0489,3.6634,5.553
13.9070,-1.2644,-4.5288,5.5434,7.269
13.9180,-0.8596,-2.7490,8.2090,8.700
13.9190,-1.8211,-1.4332,1.0259,2.534
13.9200,-2.5910,-0.2719,-6.3707,6.883
13.9470,-2.9116,0.3989,-8.6820,9.166
13.9480,-2.9634,1.0825,-6.5982,7.314
13.9480,-2.6474,1.8087,-3.1830,4.518
13.9580,-2.5596,2.4787,-0.1316,3.565
13.9690,-2.0318,3.3557,0.2080,3.928
13.9820,-1.4380,3.6035,-0.4690,3.908
13.9910,-0.6824,3.5488,-0.6538,3.672
14.0400,0.0518,3.3138,-0.2206,3.322
14.0440,1.0374,2.3677,0.7657,2.696
14.0480,2.3531,0.3618,1.6954,2.923
14.0520,3.7167,-1.4926,-2.0345,4.492
14.0550,3.6317,-1.5262,-2.1347,4.481
14.0580,1.5350,-2.6230,-9.1680,9.659
14.0610,-0.2169,-2.6619,-9.3653,9.739
14.0700,-2.0422,-2.6907,-7.4873,8.214
14.0810,-3.1428,-2.9403,-6.6163,7.893
14.1500,-3.6732,-2.8878,-5.8274,7.469
14.1530,-4.1667,-2.1278,-4.6488,6.595
14.1550,-4.9143,-1.5823,-3.4930,6.233
14.1580,-5.8296,-1.9848,-2.6210,6.693
14.1600,-6.6403,-2.6535,-2.0371,7.435
14.1610,-7.0421,-3.0510,-2.5804,8.097
14.1630,-7.1000,-3.0536,-2.5425,8.136
14.1650,-6.9956,-3.2247,-4.2994,8.822
14.1700,-5.8185,-2.8141,-8.6516,10.799
14.1800,-5.6657,-2.4199,-10.3644,12.057
14.2190,-7.0408,-3.2250,-10.6339,13.155
14.2200,-8.9650,-5.7646,-7.6123,13.098
14.2200,-9.4141,-8.0215,-2.6476,12.648
14.2210,-8.0855,-8.3816,0.0273,11.646
14.2280,-6.0939,-8.7384,-2.6581,10.980
14.2370,-2.9101,-8.3376,-8.3936,12.183
14.2480,0.0504,-7.5816,-5.8815,9.596
14.2620,1.9808,-7.5361,0.0920,7.793
14.2690,2.8026,-8.0697,3.1767,9.114
14.2840,4.2288,-8.1108,5.6355,10.744
14.2890,5.9510,-7.9516,6.7781,12.024
14.3520,6.7547,-7.9708,7.5275,12.877
14.3550,6.4971,-7.8645,7.6798,12.769
14.3590,2.8762,-7.9146,5.5451,10.083
14.3600,-1.9377,-7.5540,1.4508,7.932
14.3620,-5.2356,-6.6726,-0.4328,8.492
14.3640,-5.6396,-5.7508,-0.7097,8.086
14.3650,-2.7154,-4.2203,-0.0619,5.019
14.3700,1.2020,-2.3473,1.0666,2.845
14.3800,4.8514,-0.4855,2.1856,5.343
14.3930,6.9834,0.6810,3.4073,7.800
14.4260,7.6376,1.3688,4.4199,8.930
14.4270,7.0142,1.4715,4.9120,8.689
14.4280,5.5773,1.7324,5.1185,7.766
14.4290,4.4357,2.1674,5.0309,7.049
14.4380,3.3850,2.7397,5.2004,6.783
14.4500,2.7162,3.2361,5.7232,7.114
14.4630,2.2409,3.8744,5.8143,7.337
14.4700,2.0319,4.3735,6.1272,7.797
14.4850,2.2156,4.9941,6.7045,8.649
14.4910,2.9679,5.6180,7.5618,9.877
14.5590,3.7048,6.2834,8.1522,10.939
14.5640,4.0282,6.9459,8.7588,11.882
14.5660,4.1897,7.4947,9.4080,12.737
14.5690,4.1101,7.9001,9.3163,12.888
14.5710,3.4471,7.7626,8.6036,12.090
14.5780,2.6540,7.4562,7.5407,10.932
14.5810,2.6009,7.4709,7.5295,10.921
14.5860,2.8550,7.7266,6.1191,10.261
14.5890,3.1354,7.8958,4.8604,9.788
14.5910,3.2925,8.0461,2.8864,9.160
14.5970,2.7003,7.9178,0.3013,8.371
14.6100,-0.3370,6.4709,-3.7479,7.485
14.6170,-3.3403,4.4203,-7.0941,9.001
14.6610,-4.9398,2.4335,-7.5899,9.377
14.6630,-4.2841,0.6007,-8.7431,9.755
14.6640,-3.9105,-2.5853,-8.0930,9.353
14.6650,-3.4022,-5.7412,-3.5396,7.554
14.6680,-4.1441,-9.2301,-2.1810,10.350
14.6770,-4.0091,-10.2601,-5.4159,12.275
14.6900,-3.1248,-9.6572,-10.4306,14.554
14.7010,0.8738,-7.9855,-4.9307,9.426
14.7510,8.2942,-8.2683,4.8543,12.678
14.7540,12.8213,-15.0637,-6.1982,20.730
14.7580,8.5273,-19.3839,-2.1638,21.287
14.7610,2.2942,-16.9827,5.3180,17.943
14.7630,-1.2938,-10.5699,8.8660,13.856
14.7660,-0.5011,-4.0166,7.8215,8.807
14.7690,2.2693,1.4411,6.8166,7.328
14.7790,3.5370,3.9800,7.2666,9.009
14.7880,3.8320,5.4859,7.4886,10.043
14.7970,3.4207,6.7865,6.5351,10.023
14.8450,2.7254,7.4529,6.1374,10.032
14.8460,1.5549,7.6780,6.6430,10.271
14.8470,0.9611,7.2073,5.8205,9.314
14.8480,1.0009,5.9500,3.0722,6.771
14.8480,0.9257,4.4282,1.2925,4.705
14.8620,0.7638,2.0899,0.0118,2.225
14.8690,0.6426,-0.1587,-0.3283,0.739
14.8840,0.6953,-2.4949,0.3648,2.616
14.8880,0.0095,-4.2765,2.4348,4.921
14.9260,-0.5678,-5.1324,4.4277,6.802
14.9270,-0.7202,-4.4619,6.3992,7.834
14.9270,-1.5502,-1.5352,7.1684,7.493
14.9280,-3.7087,-1.6617,-1.3767,4.291
14.9370,-4.2313,-1.2742,-6.2121,7.623
14.9480,-3.8225,-0.2462,-6.0424,7.154
14.9600,-3.0783,1.0850,-3.4988,4.785
14.9690,-2.6049,2.2604,-1.6180,3.810
14.9780,-2.0597,3.5002,-0.6766,4.117
14.9890,-1.3605,4.2743,-0.8036,4.557
14.9980,-0.2555,4.8799,-0.6479,4.929
15.0620,0.8348,5.0320,-0.5360,5.129
15.0640,1.7697,4.1451,-0.1404,4.509
15.0670,2.4731,2.2328,-0.1528,3.335
15.0690,2.8474,-0.2188,-1.9330,3.448
15.0700,1.9837,-1.8456,-3.5014,4.427
15.0720,0.5502,-2.5721,-4.6051,5.303
15.0740,-0.7267,-3.3158,-5.5430,6.500
15.0790,-1.7460,-4.1232,-7.0367,8.341
15.0890,-2.8410,-4.6821,-8.9909,10.528
15.0980,-3.0926,-3.6233,-9.4922,10.620
15.1480,-2.7205,-1.4724,-7.7415,8.337
15.1490,-2.9299,-0.7699,-5.2817,6.089
15.1490,-3.7238,-1.3400,-2.5981,4.734
15.1500,-4.6969,-2.1999,-0.9524,5.273
15.1510,-5.7103,-3.0872,-0.0188,6.491
15.1610,-5.7915,-3.0788,0.0850,6.560
15.1680,-7.1311,-3.7777,-3.2963,8.717
15.1780,-7.0584,-3.4484,-7.0570,10.560
15.1890,-6.8602,-3.1623,-10.0347,12.560
15.2030,-7.8296,-3.9535,-9.6319,13.027
15.2820,-9.8765,-6.6186,-5.9900,13.313
15.2850,-10.5745,-8.2832,-1.3740,13.503
15.2890,-9.7009,-8.3118,1.6961,12.887
15.2920,-9.1633,-8.1558,0.3547,12.272
15.2940,-7.0126,-7.1257,-6.5584,11.957
15.2960,-1.7883,-5.6213,-11.5142,12.937
15.2980,1.6877,-5.7903,-7.2249,9.411
15.3000,4.1527,-6.3581,-1.1789,7.685
15.3010,5.0146,-7.7879,3.9298,10.062
15.3030,5.1081,-8.9435,7.3957,12.680
15.3100,5.3656,-8.9448,7.6794,12.953
15.3180,4.3467,-9.0550,9.4860,13.816
15.3320,3.4662,-8.4881,5.7382,10.816
15.3380,-0.0684,-7.6786,1.4832,7.821
15.3790,-4.3106,-6.9052,0.3118,8.146
15.3790,-5.1495,-5.5922,0.1357,7.603
15.3800,-1.5704,-3.7281,0.7801,4.120
15.3810,2.5623,-1.6985,1.6769,3.502
15.3890,4.7274,-0.3656,2.4221,5.324
15.3980,5.4976,0.7068,3.1933,6.397
15.4190,5.8257,1.4689,3.4757,6.941
15.4210,5.2689,1.8370,4.3860,7.097
15.4850,4.4764,2.1043,4.9084,6.968
15.4880,4.0964,2.7637,4.5057,6.687
15.4910,3.2085,3.2763,4.4738,6.407
15.4940,2.0273,3.5151,5.4359,6.783
15.4960,1.7038,3.7156,5.8694,7.153
15.4980,1.8849,3.9384,6.0368,7.450
15.5000,2.2721,4.1418,6.1777,7.777
15.5020,2.9299,4.3311,6.6279,8.442
15.5110,2.8746,4.2195,6.8593,8.551
15.5190,4.3675,5.0533,7.6020,10.119
15.5350,4.6030,5.5972,8.0677,10.845
15.5390,4.0548,6.3106,8.6890,11.479
15.5870,3.4370,6.8198,7.7190,10.858
15.5910,2.9364,7.1573,7.0967,10.498
15.5940,2.2952,7.3958,7.1591,10.546
15.5960,1.5849,7.6227,7.0972,10.535
15.5980,1.4078,7.8758,6.3784,10.232
15.6000,2.3838,8.5258,4.4313,9.900
15.6170,2.9020,8.8730,1.3571,9.434
15.6820,1.9071,8.4144,-2.0892,8.877
15.6850,-1.2329,6.5845,-6.6661,9.451
15.6880,-3.9166,4.5024,-8.8261,10.654
15.6900,-4.9033,2.3923,-7.1065,8.959
15.6930,-4.6180,0.4142,-8.3957,9.591
15.6960,-4.1306,-2.4993,-8.0874,9.419
15.6990,-4.3535,-5.5777,-6.2040,9.410
15.7020,-5.0983,-8.9679,-5.9152,11.891
15.7050,-5.0798,-10.5309,-7.4983,13.890
15.7190,-5.0496,-10.4684,-7.6616,13.921
15.7220,1.7610,-7.6764,6.7348,10.363
15.7940,8.1436,-12.6389,-4.7884,15.779
15.7960,8.1279,-18.0039,-5.6177,20.537
15.7970,8.5842,-18.0300,15.3483,25.186
15.7980,3.5991,-15.4852,17.9108,23.949
15.7980,0.5943,-8.6528,7.7612,11.639
15.7990,2.9169,-1.3859,-0.1404,3.232
15.8000,3.6316,1.3647,6.1762,7.294
15.8010,4.5037,3.3205,7.3245,9.217
15.8600,4.4262,3.3317,7.2941,9.159
15.8640,4.0789,6.9948,5.0604,9.548
15.8680,3.2570,7.8721,3.4874,9.205
15.8720,2.2361,7.8308,2.0431,8.396
15.8750,1.5538,6.9121,1.0912,7.168
15.8790,0.9130,5.4816,0.9719,5.641
15.8800,0.5316,3.4340,1.0963,3.644
15.8820,0.1838,0.8682,1.6262,1.853
15.8890,-0.0675,-1.6365,2.8676,3.302
15.9030,0.4248,-3.8605,4.0973,5.646
15.9120,1.1882,-4.8184,7.2298,8.769
15.9170,0.9868,-4.0311,5.6464,7.008
15.9680,-0.2650,-2.5945,0.8405,2.740
15.9690,-1.3685,-1.3043,-2.2450,2.935
15.9700,-2.4636,-0.3159,-3.4868,4.281
15.9700,-3.0201,0.8438,-3.4100,4.633
15.9710,-3.5105,1.7324,-2.7104,4.761
15.9780,-3.9838,2.2494,-1.9793,4.985
15.9880,-4.3352,2.3342,-1.5306,5.156
16.0050,-4.3136,2.1095,-1.2217,4.955
16.0100,-3.6419,1.9239,-1.0327,4.246
16.0650,-2.5058,1.9024,-0.5806,3.199
16.0680,-1.0206,2.2416,-0.5527,2.524
16.0710,0.3597,2.3795,-0.6093,2.482
16.0720,1.4388,1.8079,-1.2329,2.619
16.0740,2.0861,0.1257,-2.7469,3.452
16.0760,1.2431,-1.7669,-4.1700,4.696
16.0810,-0.2079,-3.3888,-5.3215,6.312
16.0890,-1.4529,-4.0689,-6.0585,7.441
16.1010,-2.4281,-4.1014,-7.7702,9.116
16.1080,-1.4299,-3.2185,-9.3038,9.948
16.1630,0.3601,-2.0047,-8.0642,8.317
16.1640,1.0519,-1.5367,-5.9958,6.278
16.1650,-0.4524,-2.3018,-4.8183,5.359
16.1650,-3.8113,-3.7307,-3.9630,6.645
16.1660,-6.3967,-4.5301,-3.0052,8.395
16.1680,-8.2376,-4.7570,-2.0665,9.734
16.1790,-9.5645,-4.5629,-1.9121,10.768
16.1890,-10.8525,-3.8556,-3.1797,11.948
16.2020,-11.6094,-2.9418,-5.8032,13.308
16.2090,-12.0979,-2.4200,-8.6447,15.065
16.2450,-12.9323,-3.5185,-8.8617,16.067
16.2480,-13.6982,-6.5105,-4.7440,15.891
16.2510,-12.0957,-8.2005,-0.6276,14.627
16.2530,-8.9515,-8.6510,1.3749,12.524
16.2570,-5.0913,-7.7153,-2.5594,9.592
16.2690,-0.9837,-6.6715,-11.1529,13.033
16.3190,2.4019,-6.7097,-7.0757,10.043
16.3200,2.7908,-7.7895,2.9224,8.775
16.3210,2.7950,-8.1409,8.1609,11.861
16.3210,4.5788,-8.5141,9.7529,13.732
16.3220,6.6159,-9.2413,10.3040,15.341
16.3310,7.5309,-9.7329,11.9181,17.131
16.3370,6.3886,-9.8075,12.0696,16.813
16.3890,1.2596,-9.4132,-0.4596,9.508
16.3900,-1.6415,-8.5063,-7.8601,11.698
16.3910,-0.5888,-6.9196,-8.2407,10.777
16.3910,0.7943,-5.2855,-3.8890,6.610
16.3920,3.3001,-3.0195,1.2618,4.648
16.4000,6.2239,-0.7340,3.8508,7.356
16.4110,7.9108,1.5072,5.9589,10.018
16.4240,7.3331,2.8471,7.5794,10.924
16.4790,5.7704,3.3985,7.7827,10.267
16.4830,3.8408,3.8573,6.5577,8.523
16.4860,2.1966,4.0258,6.2468,7.750
16.4890,0.7688,4.1329,6.2302,7.516
16.4910,0.2107,4.2010,6.3786,7.641
16.4930,0.3511,4.4665,6.4687,7.869
16.4950,0.6777,4.6198,6.4563,7.968
16.5010,1.3163,4.8499,7.0965,8.696
16.5080,2.1537,5.2862,8.4164,10.169
16.5200,2.1449,5.1492,8.6658,10.306
16.5330,4.0734,6.6078,10.2272,12.839
16.5810,4.5819,7.1526,9.7369,12.921
16.5810,4.2999,7.4539,8.9234,12.397
16.5820,3.8504,7.8888,8.0299,11.897
16.5830,3.6949,8.4476,7.2597,11.735
16.5840,3.7236,9.3296,6.3187,11.867
16.5880,3.6362,10.1178,5.2054,11.945
16.5990,2.6658,10.6611,3.2289,11.454
16.6110,0.5271,10.3105,-0.2350,10.327
16.6290,-3.2406,7.6686,-7.7579,11.380
16.6330,-6.3601,3.3941,-15.9094,17.467
16.6390,-6.2783,0.3372,-19.5777,20.563
16.7250,-3.2891,-2.6441,-11.0913,11.867
16.7310,1.1921,-5.9180,-0.1638,6.039
16.7360,1.8834,-9.7113,-2.5611,10.218
16.7400,-0.0689,-13.4717,-12.6965,18.512
16.7450,-1.5140,-12.4681,-14.5116,19.192
16.7500,2.0413,-9.2488,3.3402,10.043
16.7540,8.1739,-9.9746,9.9978,16.318
16.7570,10.0509,-14.6484,3.3442,18.077
16.7610,7.6122,-16.7214,10.2271,21.027
16.7650,4.3618,-14.9627,13.6533,20.720
16.7700,1.0851,-9.9566,12.9979,16.409
16.7730,0.9683,-4.2079,12.1190,12.865
16.7760,2.1948,1.0146,8.8901,9.213
16.7790,3.1464,4.1705,7.1060,8.820
16.7900,4.0392,6.5166,4.8996,9.099
16.8020,4.2789,7.7487,2.9912,9.343
16.8080,3.6581,8.4602,1.5555,9.348
16.8640,3.3110,8.5861,0.5291,9.218
16.8650,2.6906,7.4124,-0.1631,7.887
16.8650,2.7213,6.0533,-0.3575,6.646
16.8660,2.7635,4.2030,-0.0106,5.030
16.8670,2.5574,2.1311,0.7885,3.421
16.8680,2.2396,-0.4939,1.9599,3.017
16.8810,1.2359,-2.9595,3.6059,4.826
16.8890,0.4438,-4.6495,9.9718,11.011
16.9100,-0.3076,-4.8135,8.6141,9.873
16.9140,-1.6635,-4.1881,4.2182,6.173
16.9230,-2.3287,-2.8465,0.9874,3.808
16.9330,-2.8196,-0.9595,-0.6842,3.056
16.9710,-3.4979,0.4041,-1.8986,4.000
16.9720,-4.5664,1.6495,-2.7121,5.561
16.9730,-5.4506,2.4476,-2.3074,6.405
16.9730,-5.3328,2.9188,-1.7932,6.338
16.9790,-4.8060,2.6657,-1.5358,5.706
16.9880,-3.9863,2.4689,-1.2121,4.843
16.9980,-2.7808,2.5623,-0.4307,3.806
17.0080,-1.7484,2.6021,-0.0283,3.135
17.0640,-0.3835,2.4289,-0.3748,2.487
17.0700,1.6557,1.6161,-1.7358,2.892
17.0740,4.0049,-0.2775,-4.9729,6.391
17.0770,4.0941,-2.0684,-5.8584,7.440
17.0810,1.8243,-3.4908,-4.8007,6.210
17.0830,-0.2670,-4.3956,-4.3363,6.180
17.0860,-2.4998,-5.1000,-6.5371,8.660
17.0930,-4.1470,-4.7810,-9.6889,11.573
17.1080,-3.5996,-2.8194,-10.6297,11.571
17.1120,-3.1057,-1.6517,-7.8667,8.617
17.1800,-4.3390,-2.0333,-4.2145,6.381
17.1840,-6.0558,-3.3760,-2.0233,7.222
17.1870,-7.9517,-5.0129,-1.3027,9.490
17.1890,-9.2982,-5.9100,-2.7699,11.360
17.1910,-10.0000,-5.5685,-6.4077,13.117
17.1930,-9.4198,-4.0768,-9.8161,14.202
17.1960,-8.2658,-2.7114,-10.9304,13.970
17.1990,-8.1965,-2.5478,-9.2026,12.584
17.2010,-8.2001,-2.5134,-9.0483,12.467
17.2090,-9.2001,-5.5045,-0.7995,10.751
17.2220,-8.3123,-7.3412,3.7972,11.722
17.2330,-6.5465,-8.3001,3.2666,11.064
17.2640,-2.5975,-8.8863,-1.1239,9.326
17.2650,2.1079,-8.8448,0.8851,9.136
17.2660,4.9503,-8.4049,2.3105,10.024
17.2680,4.3622,-8.0630,4.2862,10.120
17.2780,4.2292,-8.0022,5.3840,10.531
17.2890,6.8246,-8.8561,3.4040,11.687
17.3080,8.1202,-10.7780,0.3747,13.500
17.3130,5.8300,-11.8660,-1.8659,13.352
17.3640,-1.2973,-11.1502,1.0612,11.275
17.3680,-6.5859,-9.3624,5.3476,12.634
17.3710,-4.8174,-6.5618,2.8126,8.612
17.3730,0.6337,-2.7548,-0.0461,2.827
17.3760,3.2667,-0.4112,1.9601,3.832
17.3790,3.8231,0.1715,5.4900,6.692
17.3830,4.3758,0.1461,7.7054,8.862
17.4120,4.7274,-0.0577,8.7739,9.967
17.4150,5.5200,0.3629,8.0722,9.786
17.4170,6.1877,1.2726,6.4204,9.007
17.4200,5.8196,2.2025,5.7560,8.476
17.4730,4.7906,3.0054,5.9992,8.245
17.4780,4.0156,3.6656,5.9865,8.087
17.4820,3.3684,4.6499,6.1721,8.430
17.4860,3.0572,5.5997,6.3824,9.024
17.4890,3.2147,6.5565,6.8329,10.001
17.4920,3.2962,7.1081,7.3779,10.762
17.4950,3.5695,7.6621,8.0844,11.696
17.4990,2.6380,7.5217,9.3059,12.253
17.5100,1.5078,7.7204,10.9218,13.460
17.5190,1.5144,8.6195,11.7452,14.647
17.5670,2.6738,9.9068,8.4736,13.308
17.5700,3.3978,10.6277,4.3278,11.968
17.5730,2.7725,10.6232,2.9370,11.365
17.5750,1.8064,9.7723,2.0126,10.140
17.5770,0.8799,8.3226,0.0203,8.369
17.5800,0.0431,6.2624,-3.4754,7.162
17.6110,0.0029,4.6637,-6.1568,7.724
17.6150,-0.1717,2.7264,-6.8934,7.415
17.6170,-0.4517,0.6993,-7.0946,7.143
17.6200,-1.1684,-2.0006,-6.0582,6.486
17.6290,-1.5101,-4.3771,-3.2503,5.657
17.6380,-2.7217,-7.1723,-3.1475,8.292
17.6530,-3.5921,-8.6620,-6.8793,11.630
17.6820,-4.9446,-8.7143,-13.3286,16.675
17.6830,-4.3989,-7.7250,-13.4248,16.101
17.6840,2.7619,-5.5933,6.3860,8.927
17.6890,6.8387,-7.9426,11.7956,15.779
17.6980,7.3825,-13.2207,7.9103,17.084
17.7090,7.5821,-15.7469,10.1817,20.227
17.7180,2.8997,-16.6349,9.0122,19.140
17.7280,2.8312,-16.5668,8.7951,18.969
17.7770,6.4107,-2.3221,-1.9913,7.103
17.7780,7.7691,0.8761,9.0468,11.957
17.7780,7.5713,2.9071,11.8212,14.336
17.7790,7.3134,4.6314,9.4682,12.829
17.7790,5.3827,5.8785,7.6141,11.023
17.7890,4.0260,6.6496,6.2737,9.989
17.8470,2.9913,6.5974,3.4791,8.036
17.8500,1.9859,5.7041,1.2779,6.174
17.8520,1.3521,4.3281,0.1015,4.535
17.8540,0.5847,2.2283,0.6497,2.394
17.8560,-0.0817,0.0337,1.8818,1.884
17.8590,-0.2506,-2.0475,3.5230,4.082
17.8610,0.1083,-3.1218,4.2715,5.292
17.9040,0.1670,-3.3804,4.4099,5.559
17.9070,-0.0031,-2.2482,4.9720,5.457
17.9100,-0.6263,-0.3914,4.1227,4.188
17.9230,-1.5081,0.7555,1.9123,2.550
17.9260,-2.6653,1.2089,-0.6977,3.009
17.9280,-3.6853,1.4337,-2.3434,4.597
17.9310,-5.0114,1.3456,-3.6597,6.350
17.9370,-6.4751,0.8351,-4.2065,7.767
17.9500,-7.3384,0.2591,-4.3830,8.552
17.9580,-6.4560,0.2138,-4.4060,7.819
18.0190,-4.3308,0.5649,-3.6685,5.704
18.0200,-2.4983,1.1072,-2.7459,3.874
18.0210,-0.8446,1.4520,-1.8624,2.508
18.0210,0.7295,1.5549,-1.6064,2.352
18.0220,2.9099,1.4556,-2.6104,4.171
18.0220,4.6888,1.0142,-4.2882,6.434
18.0290,4.7896,-0.1403,-4.8767,6.837
18.0380,2.1909,-1.6242,-4.0074,4.847
18.0590,-0.9649,-2.7121,-4.0724,4.987
18.0630,-3.1546,-3.1925,-6.0305,7.517
18.1310,-4.4696,-3.2540,-9.3868,10.894
18.1360,-3.4019,-2.4807,-10.0300,10.878
18.1400,-2.7798,-2.0492,-7.2817,8.059
18.1430,-3.7290,-2.3772,-3.9715,5.944
18.1450,-4.8452,-2.9907,-1.7567,5.959
18.1490,-5.8129,-3.5965,-0.4356,6.849
18.1520,-6.7073,-3.9096,-0.7132,7.796
18.1540,-7.9431,-3.8823,-2.7131,9.248
18.1570,-8.8950,-3.3482,-5.5948,11.029
18.1590,-9.5150,-2.6710,-9.6306,13.799
18.1680,-10.2060,-2.8902,-10.7622,15.111
18.1780,-11.0970,-5.0326,-7.0318,14.068
18.1880,-10.3462,-7.7634,-3.1825,13.321
18.2560,-8.0500,-9.5806,-0.2792,12.517
18.2570,-5.6669,-10.3115,-2.1452,11.960
18.2580,-1.1486,-9.3792,-7.0738,11.804
18.2590,1.9648,-8.2570,-4.4377,9.578
18.2590,2.5775,-7.8054,1.4463,8.346
18.2600,1.3458,-7.5414,5.5137,9.438
18.2600,2.5818,-7.0440,7.3070,10.473
18.2720,4.9143,-7.1041,7.1420,11.208
18.2780,6.6387,-7.8168,7.7957,12.882
18.3320,7.8817,-8.6207,6.7270,13.479
18.3350,7.7562,-9.2736,2.5923,12.364
18.3380,2.9517,-9.2394,-3.1958,10.212
18.3400,-1.4131,-7.7126,-5.2297,9.425
18.3420,-1.3240,-7.7392,-5.0974,9.361
18.3450,1.1239,-3.3001,0.0449,3.487
18.3530,4.2531,-0.7780,2.1106,4.811
18.3590,6.2475,1.1417,3.5872,7.294
18.3830,7.0346,2.7194,4.9083,8.998
18.3860,6.8277,3.5830,5.8710,9.691
18.3900,5.9481,4.1806,6.2391,9.580
18.4490,4.6643,4.3731,6.0198,8.782
18.4520,2.9538,4.3250,5.8999,7.889
18.4550,1.6916,4.1452,5.7615,7.297
18.4560,0.9902,4.0927,5.3447,6.804
18.4590,0.7944,4.1494,5.1710,6.677
18.4600,1.4287,4.4195,5.6445,7.310
18.4610,2.0720,4.5387,6.6042,8.277
18.4710,2.8642,4.8409,7.5980,9.453
18.4770,3.2635,5.0699,8.7303,10.610
18.5290,2.9564,5.5669,9.4270,11.340
18.5300,2.9679,6.4705,10.3014,12.522
18.5310,3.0271,7.5405,8.9494,12.088
18.5320,2.8709,8.1173,7.2373,11.248
18.5330,2.9169,8.6161,6.4535,11.153
18.5370,3.0511,8.9657,5.7255,11.067
18.5540,2.6933,9.2152,4.6995,10.689
18.5590,1.7978,9.3435,3.8138,10.251
18.6320,0.2267,9.0366,1.5487,9.171
18.6370,-2.1474,7.6108,-3.2923,8.566
18.6410,-5.3309,4.7681,-12.3270,14.252
18.6450,-5.3932,4.8929,-12.5455,14.506
18.6490,-5.5124,-0.8647,-14.2921,15.343
18.6530,-2.7140,-4.0174,-3.3765,5.908
18.6560,-0.7557,-7.3519,2.9209,7.947
18.6590,-0.3374,-10.8354,-1.8253,10.993
18.6620,-0.9821,-12.0353,-11.3760,16.590
18.6660,0.2587,-11.2107,-19.8407,22.790
18.6850,6.6348,-7.5195,-1.9809,10.222
18.6890,13.4170,-9.1884,8.3536,18.282
18.6920,17.7157,-13.9030,4.7572,23.017
18.7430,10.2695,-15.8525,5.9723,19.810
18.7440,1.3369,-13.5756,7.0649,15.362
18.7450,-3.9500,-8.8738,8.6752,13.023
18.7450,-2.0748,-3.1228,9.7836,10.477
18.7460,0.6949,1.3298,9.2126,9.334
18.8060,2.0718,3.8307,8.4588,9.514
18.8070,2.7509,5.6577,7.8535,10.063
18.8080,3.3123,6.9613,7.5635,10.800
18.8090,3.1328,7.6512,7.1409,10.925
18.8090,2.9974,7.8429,5.6106,10.098
18.8100,2.9707,7.8857,5.2671,9.937
18.8110,2.9161,5.7923,-0.2039,6.488
18.8750,2.3115,4.0049,-1.4267,4.839
18.8800,2.0240,2.0661,-1.4437,3.233
18.8860,1.4059,-0.2024,-0.2255,1.438
18.8890,0.6043,-2.0595,1.9428,2.895
18.8910,-0.4436,-3.8005,4.8014,6.140
18.8930,-1.1816,-4.5181,6.1368,7.712
18.8960,-1.0147,-3.3755,9.7461,10.364
18.8990,-3.0043,-2.8494,0.1845,4.145
18.9130,-4.5417,-2.3318,-6.5650,8.316
18.9170,-4.5420,-1.2152,-7.1022,8.518
18.9190,-3.9504,-0.3244,-4.7777,6.208
18.9300,-3.2360,0.8075,-1.9597,3.868
18.9400,-2.4845,2.1029,-0.8395,3.362
19.0160,-1.8721,3.1927,-0.3397,3.717
19.0170,-1.1849,3.8155,0.0125,3.995
19.0170,-0.4196,4.0070,0.2831,4.039
19.0180,-0.4147,3.2298,0.7618,3.344
19.0180,-0.7848,1.1797,1.8694,2.346
19.0190,-1.0772,-0.5542,0.7266,1.413
19.0190,-1.3829,-1.6065,-2.2939,3.123
19.0200,-1.1770,-1.7732,-4.6486,5.113
19.0280,-0.0856,-1.4684,-5.9581,6.137
19.0380,1.0171,-1.1595,-6.0880,6.280
19.0570,1.6511,-1.3395,-5.8696,6.243
19.0590,1.4725,-1.9607,-6.0181,6.498
19.1200,-0.0842,-2.5721,-6.2106,6.723
19.1230,-1.7803,-2.2895,-5.9274,6.599
19.1270,-3.1542,-1.4646,-4.9925,6.084
19.1360,-4.1064,-1.2625,-3.8277,5.754
19.1400,-5.1876,-1.7386,-2.9643,6.223
19.1420,-6.0546,-2.4549,-3.0046,7.191
19.1460,-6.5022,-3.2502,-3.7277,8.169
19.1490,-6.2576,-3.4618,-4.9823,8.716
19.1530,-5.9744,-3.2809,-7.0233,9.787
19.1590,-6.2257,-3.2095,-8.2664,10.835
19.1740,-7.6670,-4.0239,-7.7609,11.628
19.1770,-9.6612,-6.1669,-5.0142,12.510
19.2420,-10.4484,-7.5302,-1.7001,12.991
19.2430,-10.1104,-7.7515,0.2028,12.742
19.2430,-9.8975,-7.6214,-0.7865,12.517
19.2440,-8.6855,-7.3843,-6.2120,12.983
19.2450,-5.0973,-7.1034,-10.0600,13.328
19.2450,-1.5999,-7.6806,-4.2283,8.912
19.2530,0.3175,-8.5714,4.9893,9.923
19.2590,3.7444,-8.1505,11.4622,14.554
19.2790,4.3098,-7.8010,13.0388,15.794
19.2840,4.7476,-7.6776,13.5316,16.266
19.3410,4.8468,-7.8386,13.3384,16.213
19.3440,3.8354,-8.1259,7.9040,11.967
19.3460,-0.5771,-8.9864,-5.1988,10.398
19.3500,-5.0015,-9.0100,-11.2892,15.285
19.3520,-3.2958,-7.6317,-6.7174,10.688
19.3540,2.3496,-4.6429,2.3220,5.698
19.3560,2.5939,-4.7209,2.5635,5.965
19.3580,9.9174,1.3776,5.8317,11.587
19.3700,9.2703,2.7661,4.3155,10.593
19.3780,6.8592,3.4090,4.2338,8.752
19.4350,4.9518,3.5697,4.8604,7.803
19.4360,3.2341,3.4903,6.0039,7.661
19.4360,2.6748,3.7173,6.0438,7.583
19.4370,1.9789,3.9091,6.2972,7.671
19.4380,1.6116,3.9460,6.9081,8.117
19.4380,1.2760,3.8645,7.1143,8.196
19.4570,1.2880,3.7967,7.2597,8.293
19.4620,1.8965,3.2101,6.4461,7.447
19.4770,2.4729,3.0508,6.6085,7.687
19.4800,3.2741,3.3967,7.4190,8.792
19.5860,4.3116,4.2931,8.6019,10.536
19.5940,4.8788,5.2201,9.3292,11.751
19.5970,4.6570,6.1452,8.8534,11.740
19.6030,3.7934,6.5162,8.3998,11.287
19.6060,2.8576,6.8451,8.2783,11.115
19.6100,2.5994,7.3282,7.6888,10.935
19.6120,2.6405,8.1690,6.3647,10.687
19.6140,2.4969,8.9891,4.8666,10.522
19.6190,1.5840,9.2815,3.4601,10.031
19.6220,-0.3529,8.4176,0.7057,8.455
19.6260,-3.2747,5.8403,-4.9368,8.319
19.6280,-5.1534,3.7864,-9.1571,11.169
19.6320,-5.6511,1.4162,-12.3037,13.613
19.6360,-5.7294,-1.4967,-11.1251,12.603
19.6400,-4.4567,-5.1270,-4.2269,8.001
19.6430,-3.5785,-8.7735,-0.5632,9.492
19.6630,-2.6082,-10.7157,-1.3173,11.107
19.6640,-1.9557,-10.9944,-5.1472,12.296
19.7160,-0.7733,-9.5869,-4.3731,10.566
19.7170,3.5362,-8.1739,3.7232,9.653
19.7180,8.9678,-10.4663,5.0259,14.671
19.7190,8.0996,-16.2701,-4.2322,18.661
19.7190,2.1857,-16.9047,-0.8690,17.068
19.7200,-0.9891,-14.4169,3.6332,14.901
19.7970,-0.2843,-8.7324,7.5466,11.545
19.7980,2.4120,-2.2804,8.0754,8.731
19.7990,5.0318,2.1766,5.4550,7.734
19.7990,6.0618,4.6555,5.7026,9.536
19.8000,6.5211,6.0260,6.2146,10.838
19.8010,6.4025,7.3595,6.0274,11.467
19.8020,6.0586,8.2294,5.8363,11.768
19.8020,4.5980,8.2537,5.7698,11.070
19.8110,3.0676,7.5634,5.6966,9.953
19.8920,1.6620,5.8698,5.0872,7.943
19.8950,1.7218,3.9665,3.3361,5.461
19.8990,1.7938,1.6631,2.7896,3.710
19.9010,1.8161,-0.4238,3.3805,3.861
19.9030,2.1113,-2.1701,4.8038,5.678
19.9050,1.9767,-2.9429,5.6565,6.676
19.9060,1.8849,-2.6025,5.9378,6.752
19.9090,1.8480,-1.2703,7.0300,7.379
19.9220,1.1122,0.3786,5.8429,5.960
19.9250,1.0104,0.3673,5.6932,5.794
19.9280,-3.2659,0.1052,-4.2152,5.333
19.9300,-5.7250,-0.4379,-9.4539,11.061
19.9580,-7.7209,-0.7467,-11.9304,14.230
19.9590,-7.3589,-0.6560,-9.8239,12.292
19.9600,-5.1292,-0.3706,-6.0546,7.944
19.9710,-3.2895,0.3846,-2.9938,4.464
19.9770,-1.8349,1.4347,-1.1616,2.603
20.0310,-0.7520,2.2417,0.1398,2.369
20.0320,0.6203,2.4015,1.4500,2.873
20.0320,2.6774,1.9099,1.6418,3.676
20.0330,4.4635,0.9274,0.0365,4.559
20.0340,4.9256,-0.5727,-1.7577,5.261
20.0370,3.3854,-2.0972,-3.5046,5.305
20.0490,0.2594,-3.2824,-5.6121,6.507
20.0660,-1.9786,-3.3902,-7.4877,8.454
20.0700,-3.0535,-2.4948,-8.4566,9.331
20.0790,-3.3668,-1.5061,-7.8270,8.652
20.1290,-4.0942,-1.2253,-5.5715,7.022
20.1310,-5.1332,-1.9257,-3.3268,6.413
20.1350,-6.1454,-2.9773,-1.4619,6.983
20.1380,-6.6381,-3.6216,-0.6915,7.593
20.1400,-6.9123,-3.9508,-1.4819,8.098
20.1410,-7.1948,-3.7290,-3.9175,9.001
20.1490,-7.4977,-3.1118,-7.9271,11.346
20.1610,-8.1694,-3.1463,-10.5924,13.742
20.1730,-9.9671,-5.1698,-8.9020,14.329
20.2220,-10.9306,-7.7317,-3.7892,13.915
20.2230,-10.4176,-9.4193,0.5410,14.055
20.2240,-8.9744,-10.0074,0.8629,13.470
20.2250,-6.0237,-8.9317,-5.6470,12.163
20.2250,-1.3696,-7.0390,-11.6762,13.702
20.2280,2.6262,-6.4209,-6.8276,9.734
20.2400,4.0469,-6.7279,4.5297,9.064
20.2500,3.5502,-7.2455,9.8901,12.764
20.2640,3.2973,-7.5815,12.0015,14.573
20.3380,4.0411,-7.7841,11.9444,14.819
20.3440,4.7928,-7.7251,11.3910,14.574
20.3470,6.1258,-7.7682,7.1920,12.231
20.3500,5.5258,-8.2088,-4.2554,10.772
20.3540,1.7515,-8.1560,-8.8043,12.129
20.3570,-1.0376,-7.5176,-5.2013,9.200
20.3600,-1.1854,-6.0750,0.2619,6.195
20.3630,1.6115,-3.0979,2.4120,4.244
20.3650,4.9365,-0.0287,2.8103,5.680
20.3680,7.3309,2.7037,4.2577,8.898
20.3700,7.7079,4.2242,5.4993,10.368
20.3770,6.5608,5.0399,6.3244,10.414
20.3900,4.8064,5.0021,6.7845,9.703
20.3970,2.7691,4.7190,6.8771,8.788
20.4770,1.2174,4.4868,6.4928,7.986
20.4780,0.0202,4.1370,6.3968,7.618
20.4790,-0.5130,3.9501,6.6918,7.788
20.4790,-0.1440,3.8499,6.8357,7.847
20.4800,0.7060,3.7305,7.0422,8.000
20.4800,2.1726,4.0724,7.2075,8.559
20.4810,3.2785,4.6409,7.7831,9.637
20.4810,3.9040,5.4651,8.7951,11.066
20.5500,4.2066,6.3104,9.7673,12.366
20.5560,3.9694,7.1306,9.4654,12.498
20.5600,3.5126,7.7050,8.3649,11.903
20.5620,2.9872,8.1120,7.9910,11.772
20.5650,2.8873,8.5284,7.4245,11.670
20.5700,2.7750,9.0814,6.4598,11.485
20.5720,2.1251,9.3778,5.5960,11.125
20.5750,1.0913,9.4360,3.8670,10.256
20.5780,-1.9710,7.9468,-0.6924,8.217
20.5800,-5.4917,4.9785,-7.8985,10.832
20.5890,-6.9000,1.7131,-16.2366,17.725
20.5980,-6.2765,-1.9910,-22.8377,23.768
20.6110,-4.2232,-5.8167,-10.8943,13.052
20.6170,-3.0397,-9.7562,-3.6761,10.860
20.7000,-2.6942,-12.9165,-3.6685,13.695
20.7010,-1.7365,-13.8531,-8.1149,16.149
20.7010,1.9597,-11.5722,-3.4286,12.228
20.7020,8.3381,-9.4826,11.4689,17.058
20.7030,13.0881,-14.2226,4.5080,19.847
20.7040,9.4254,-17.8518,0.4006,20.191
20.7050,2.4169,-14.5654,7.1944,16.424
20.7050,-0.2331,-9.1880,10.6775,14.088
20.7110,0.0485,-2.7424,8.2689,8.712
20.7190,2.6394,1.3539,8.1272,8.652
20.7310,4.6432,3.3194,9.6655,11.225
20.7990,5.7677,4.8841,8.6905,11.517
20.8040,5.8524,6.2269,7.4503,11.337
20.8070,5.3203,7.0282,6.5777,10.999
20.8090,3.9441,7.1731,5.7637,10.011
20.8110,2.9770,6.3719,4.1026,8.142
20.8140,2.3239,4.7836,1.7922,5.612
20.8170,2.2300,3.0374,0.1568,3.771
20.8200,2.4869,0.8133,-0.8506,2.751
20.8210,2.6330,-1.1938,-0.7562,2.988
20.8290,1.7942,-3.3411,1.0678,3.940
20.8420,0.8237,-4.6214,3.5307,5.874
20.8490,0.3696,-4.0209,9.3923,10.223
20.9210,-0.6017,-2.9782,6.4025,7.087
20.9220,-1.8626,-2.3037,2.0575,3.607
20.9220,-2.8763,-1.3771,-2.2555,3.906
20.9230,-3.3599,-0.0045,-3.8429,5.105
20.9370,-3.8490,1.4084,-4.0408,5.756
20.9400,-4.3405,2.3283,-3.4494,6.013
20.9440,-4.1513,3.1595,-2.9138,5.975
20.9480,-3.9455,3.3839,-2.1854,5.639
20.9520,-3.8734,2.9690,-1.0785,4.998
20.9550,-3.5842,2.5639,0.1026,4.408
20.9610,-2.8390,2.3755,0.8628,3.801
20.9730,-2.2489,2.2461,1.2140,3.402
20.9790,-1.7445,1.9255,1.7785,3.149
21.0630,-1.1761,1.1784,2.4183,2.936
21.0640,0.0725,-0.2784,0.6155,0.679
21.0640,1.4160,-1.4274,-4.1766,4.635
21.0650,2.2689,-2.2824,-10.5638,11.043
21.0650,1.7670,-2.6936,-12.2489,12.665
21.0660,0.4828,-2.6497,-10.0041,10.360
21.0670,-0.9519,-2.3288,-8.6785,9.036
21.0670,-2.4866,-1.6460,-7.8112,8.361
21.0680,-3.2053,-1.2040,-6.2459,7.123
21.0790,-4.0662,-1.4462,-4.3164,6.104
21.0990,-5.1977,-2.3675,-2.9480,6.427
21.1030,-6.4961,-3.5441,-1.9011,7.640
21.1780,-7.4847,-4.3079,-1.9896,8.862
21.1840,-8.3496,-4.6029,-4.0309,10.351
21.1890,-9.0329,-4.2662,-7.9695,12.779
21.1920,-10.4748,-4.9627,-10.4180,15.585
21.1960,-12.6023,-7.7887,-7.4118,16.566
21.2000,-12.3432,-9.0894,-2.3295,15.505
21.2040,-10.8918,-9.7715,-0.7994,14.654
21.2090,-10.7410,-9.6982,-0.4679,14.479
21.2130,-4.0029,-12.5585,-15.6422,20.455
21.2170,2.0880,-10.7836,-9.6821,14.642
21.2210,5.6464,-9.0037,3.4603,11.177
21.2220,4.9298,-8.1472,10.7717,14.377
21.2430,3.4761,-7.9926,12.0050,14.835
21.2440,4.2222,-8.3087,11.3329,14.673
21.2480,5.6133,-8.4619,10.2326,14.416
21.3020,6.4598,-8.3748,6.2699,12.295
21.3030,4.1305,-8.5449,-1.8813,9.676
21.3040,0.4067,-8.2310,-6.1456,10.280
21.3040,-2.1933,-7.4304,-3.4667,8.488
21.3050,-2.4355,-6.2226,1.4450,6.837
21.3080,-0.6415,-4.1243,4.7535,6.326
21.3190,2.4969,-1.6185,5.5898,6.332
21.3340,5.8841,1.0902,5.5926,8.191
21.4090,7.3090,2.7591,5.9200,9.802
21.4130,6.9296,3.6445,6.7504,10.338
21.4150,5.5681,4.1924,7.4449,10.198
21.4180,3.8483,4.6979,7.7811,9.870
21.4220,2.2706,4.8896,7.5445,9.273
21.4240,0.7904,5.0737,7.3670,8.980
21.4260,0.0454,5.5294,7.3002,9.158
21.4290,0.1730,6.0745,7.5584,9.698
21.4310,1.2493,6.6990,7.8226,10.375
21.4350,2.4062,7.2785,7.9842,11.069
21.4730,3.6433,7.8090,8.5486,12.138
21.4770,3.9951,7.8760,9.3189,12.839
21.4790,3.4290,7.8164,10.1978,13.298
21.4810,2.8213,7.9520,10.4925,13.464
21.4840,2.4735,8.2684,9.8694,13.111
21.4960,2.4150,8.2530,9.9029,13.115
21.4990,4.7950,8.7770,6.0815,11.705
21.5620,4.9825,8.6709,4.7299,11.063
21.5630,4.1542,8.3322,2.6912,9.691
21.5630,1.7023,7.2868,-0.2621,7.488
21.5640,-2.1066,4.8545,-5.2028,7.421
21.5650,-4.9787,2.0797,-13.3805,14.427
21.5650,-5.9119,-1.6891,-24.0862,24.859
21.5700,-4.7579,-4.7567,-16.3935,17.720
21.5840,-3.9323,-8.6902,-4.5937,10.587
21.6510,-4.2261,-10.5683,-0.9119,11.418
21.6570,-2.9450,-9.8619,-4.5644,11.259
21.6610,0.2797,-6.4105,-2.5732,6.913
21.6650,6.1969,-3.4664,10.5494,12.716
21.6670,12.8573,-7.6065,2.4775,15.143
21.6730,15.4317,-17.7018,-3.6040,23.759
21.6760,7.9620,-20.1078,7.9584,23.045
21.6790,-1.8790,-16.9224,12.5902,21.176
21.6810,-3.8368,-10.1592,12.6229,16.651
21.6830,-0.8744,-2.6787,10.1958,10.578
21.6900,1.8737,1.1071,8.9780,9.238
21.6970,3.4417,3.1621,7.8552,9.140
21.7090,4.5526,4.9197,6.5786,9.392
21.7170,5.3878,5.9031,5.0363,9.447
21.8000,5.7460,6.2974,2.6798,8.936
21.8010,5.2030,5.8733,1.2877,7.951
21.8010,3.8598,4.4484,0.4305,5.905
21.8020,3.3096,2.9975,-0.0087,4.465
21.8030,2.4903,1.1485,-0.1592,2.747
21.8030,1.4212,-0.4812,0.4723,1.573
21.8040,0.4747,-1.7027,2.4807,3.046
21.8050,-0.4861,-2.2650,4.9314,5.448
21.8770,-1.0271,-1.7279,11.0510,11.232
21.8820,-1.6956,-1.5590,5.3005,5.779
21.8850,-2.7636,-1.2985,-0.8517,3.170
21.8890,-3.3296,-0.9181,-3.8854,5.199
21.8920,-3.0741,0.2755,-3.7648,4.868
21.8950,-2.8332,1.5172,-1.7803,3.674
21.8980,-3.0880,2.0395,-0.5137,3.736
21.9010,-3.2374,2.7127,-0.0426,4.224
21.9040,-3.2216,3.2054,-0.1606,4.547
21.9200,-3.2667,3.2373,-0.4497,4.621
21.9240,-3.0069,2.9882,-0.5437,4.274
21.9260,-2.7026,2.3945,-0.7115,3.680
21.9290,-2.6201,1.0083,-1.0174,2.986
21.9530,-2.3771,-0.5052,-1.7263,2.981
21.9540,-1.5368,-1.6787,-3.7650,4.399
21.9630,-0.3326,-1.9403,-5.9644,6.281
21.9690,0.7433,-1.6239,-7.0755,7.297
22.0200,1.1013,-1.2597,-5.9870,6.216
22.0200,0.8029,-1.0997,-5.3237,5.495
22.0210,-0.7854,-1.1226,-6.4426,6.587
22.0220,-2.5149,-1.1877,-6.9279,7.465
22.0220,-3.5387,-1.3407,-5.7412,6.876
22.0290,-4.3916,-1.8447,-4.2688,6.396
22.0520,-5.6845,-2.6250,-2.9235,6.910
22.0560,-6.9521,-3.4144,-2.2477,8.065
22.0600,-8.0134,-4.1046,-2.6449,9.384
22.1220,-8.4169,-4.3408,-4.1686,10.347
22.1250,-8.2455,-3.7573,-6.9945,11.447
22.1270,-8.2864,-3.0613,-9.8133,13.204
22.1290,-9.4767,-3.5931,-10.8063,14.815
22.1310,-11.3255,-5.9352,-7.9332,15.048
22.1340,-11.6527,-8.7700,-2.4498,14.788
22.1360,-10.1597,-9.3925,0.9329,13.868
22.1390,-8.5311,-9.8310,-1.9622,13.164
22.1980,-5.9966,-9.7898,-7.8371,13.900
22.2030,-1.7042,-8.7566,-4.3969,9.946
22.2110,0.3054,-8.4228,3.5597,9.149
22.2150,1.7536,-7.8493,8.7541,11.888
22.2170,2.5538,-7.7784,10.0568,12.968
22.2200,3.9336,-8.3912,10.0923,13.702
22.2240,5.7267,-9.0896,10.2396,14.841
22.2260,6.6722,-9.5114,9.5545,15.042
22.2290,6.0323,-10.0526,2.6159,12.012
22.2430,1.2003,-9.6195,-5.8927,11.345
22.3060,-2.4187,-8.5383,-5.4250,10.401
22.3070,-2.8008,-6.7508,-1.5573,7.473
22.3080,0.0453,-3.7528,1.5955,4.078
22.3090,3.7818,-0.7929,3.2754,5.065
22.3090,6.7081,1.7322,5.1547,8.635
22.3100,7.7060,3.2992,6.2938,10.482
22.3110,7.1634,4.3129,7.0732,10.952
22.3910,5.9262,4.6992,7.1449,10.404
22.3950,4.0028,4.7176,6.9071,9.273
22.4010,2.6880,4.8826,6.8725,8.849
22.4050,1.5185,4.9326,6.9690,8.672
22.4090,0.7854,4.9421,7.0692,8.661
22.4120,0.3498,4.9976,7.1638,8.742
22.4150,0.8141,5.2062,7.0166,8.775
22.4170,1.9808,5.5112,7.1279,9.225
22.4190,2.9719,5.6948,7.4242,9.817
22.4210,3.8938,5.8664,8.3667,10.935
22.4240,4.0803,5.7128,9.4785,11.795
22.4300,4.1281,5.6599,10.4511,12.582
22.4380,3.7679,5.7730,10.7811,12.797
22.4490,2.7414,5.9770,9.5763,11.617
22.5320,2.9267,6.5190,7.9770,10.710
22.5330,3.4824,7.2270,6.5928,10.384
22.5330,3.7658,7.8592,5.4611,10.285
22.5340,2.8594,8.0558,4.0913,9.477
22.5350,0.8110,7.5125,1.1344,7.641
22.5350,-3.4993,4.5302,-6.1331,8.389
22.5360,-6.8298,1.0141,-13.6811,15.325
22.5370,-5.6779,-1.7915,-17.8569,18.823
22.5380,-3.8724,-5.6964,-16.6215,17.992
22.5510,-2.7575,-8.7427,-5.6202,10.753
22.5770,-2.1232,-10.3986,-0.3531,10.619
22.5820,-0.9128,-9.5231,-3.3427,10.134
22.5870,-1.0068,-8.2945,-9.2038,12.431
22.5930,-0.9421,-6.1891,-9.3694,11.268
22.5980,3.9915,-3.1726,3.8839,6.410
22.6420,8.6217,-3.6960,10.8696,14.358
22.6430,11.3311,-8.1889,6.5784,15.451
22.6440,8.5106,-11.2882,5.5161,15.175
22.6440,3.9845,-11.6966,6.0075,13.740
22.6490,1.2722,-10.4834,8.4465,13.523
22.6600,0.2001,-6.8203,9.6761,11.840
22.6690,1.8761,-2.5733,9.4714,9.992
22.7380,3.4332,1.2619,8.1556,8.938
22.7390,4.2280,3.7818,7.4610,9.372
22.7400,4.2192,5.6881,6.7636,9.793
22.7400,3.2767,6.6838,5.8381,9.460
22.7410,2.4042,7.1945,3.9927,8.572
22.7420,1.6702,7.0169,2.1755,7.534
22.7420,0.6143,5.9439,0.6378,6.009
22.8230,-0.0684,3.7372,-0.0847,3.739
22.8300,-0.1781,1.9273,0.0070,1.935
22.8340,-0.2747,-0.2612,0.7449,0.836
22.8370,-0.4958,-2.8657,1.8663,3.456
22.8410,-1.1302,-5.1843,1.8302,5.613
22.8450,-1.2460,-5.5556,5.4443,7.878
22.8480,-2.4819,-4.6628,2.5740,5.876
22.8510,-3.3250,-3.1605,-0.0292,4.588
22.8530,-2.8108,-0.8766,-1.0989,3.143
22.8570,-2.2670,0.8578,-1.1770,2.694
22.8600,-1.9964,2.5109,-1.0741,3.383
22.8610,-2.0003,3.6888,-0.8190,4.275
22.8700,-1.8937,4.4798,-0.8516,4.938
22.8790,-1.7925,4.3307,-1.1180,4.819
22.8880,-1.8672,3.3393,-1.1226,3.987
22.9160,-1.5530,2.3743,-0.6352,2.907
22.9160,-0.9687,1.5826,0.2497,1.872
22.9170,-0.5379,1.1032,1.1384,1.674
22.9730,-0.1833,0.7403,2.1033,2.237
22.9740,-0.0462,0.4707,2.2928,2.341
22.9740,0.1579,0.2027,1.1310,1.160
22.9750,0.0789,0.1674,0.9959,1.013
22.9760,-0.5592,-1.2032,-4.5001,4.692
22.9790,-1.8125,-2.1008,-8.3010,8.752
22.9900,-3.3927,-2.7528,-11.3971,12.206
23.0020,-4.3117,-2.9432,-11.3673,12.509
23.0210,-4.3508,-2.9984,-8.9676,10.409
23.0260,-4.0939,-2.9819,-6.5174,8.254
23.1310,-3.9619,-3.1729,-4.7356,6.942
23.1350,-4.4072,-3.6538,-4.0152,6.992
23.1390,-4.9973,-4.1710,-4.3131,7.809
23.1430,-5.4545,-4.3817,-5.7202,9.037
23.1460,-6.1823,-4.3401,-8.1521,11.114
23.1490,-7.7278,-4.8766,-9.8033,13.402
23.1510,-9.6840,-6.3641,-8.6567,14.464
23.1540,-11.5358,-8.7757,-4.1619,15.080
23.1590,-10.9854,-9.3483,0.2007,14.426
23.1630,-10.1480,-9.8399,1.0011,14.171
23.1660,-9.6905,-10.7279,-4.8864,15.260
23.1710,-4.3828,-9.6581,-13.3293,17.034
23.1740,1.0162,-8.2872,-7.3785,11.142
23.1760,4.1272,-7.7614,3.8841,9.610
23.1790,5.5119,-7.6235,11.0318,14.498
23.1810,5.0291,-7.6130,14.3596,17.013
23.1950,4.9819,-7.4509,13.4727,16.182
23.1980,5.5890,-6.8509,9.2604,12.803
23.2810,4.9968,-6.6117,0.0506,8.288
23.2820,1.1916,-6.8476,-9.2813,11.595
23.2830,-1.8732,-7.0320,-8.4409,11.145
23.2840,-3.1210,-6.6980,-0.2619,7.394
23.2840,-0.7462,-4.9970,5.1523,7.216
23.2850,3.4007,-2.0272,5.1682,6.510
23.2860,5.8517,0.3874,4.0817,7.145
23.2860,6.6047,2.3792,3.7238,7.947
23.3740,5.9263,3.3255,4.2867,8.035
23.3830,4.2707,3.8090,5.0293,7.618
23.3840,2.8912,4.0076,6.1165,7.863
23.3860,1.1024,4.1233,7.4264,8.566
23.3900,-0.0385,4.2918,7.8293,8.929
23.3930,-0.7003,4.4376,7.7798,8.984
23.3960,-0.1736,4.6840,7.2315,8.618
23.3990,0.5466,4.7741,7.1450,8.611
23.4010,1.0308,4.8984,7.1857,8.757
23.4050,1.6661,5.0771,7.6197,9.307
23.4090,2.7177,5.4698,8.5664,10.521
23.4110,3.1828,5.8257,9.3408,11.459
23.4140,3.3554,6.2519,10.1933,12.420
23.4300,3.6248,6.8525,10.0916,12.725
23.4330,3.5237,7.5792,9.2499,12.467
23.4380,3.5043,8.3414,7.8076,11.951
23.5120,3.7258,9.3250,6.1678,11.785
23.5130,3.1641,9.9594,4.7375,11.474
23.5140,1.8464,9.9216,3.3327,10.628
23.5150,-0.2173,8.7253,0.7985,8.764
23.5160,-3.1177,5.7681,-6.5368,9.259
23.5160,-5.4759,2.7593,-14.1225,15.396
23.5170,-5.8645,-0.7887,-19.1115,20.007
23.5180,-3.9520,-3.2030,-11.4825,12.559
23.6040,-1.4882,-5.3664,-3.6665,6.668
23.6130,-1.3373,-7.1041,-3.1060,7.868
23.6200,-2.3212,-7.7970,-6.1504,10.198
23.6240,-3.7687,-6.6262,-6.5920,10.078
23.6300,-2.7480,-2.8572,-0.3036,3.976
23.6300,0.7177,0.9114,6.2736,6.380
23.6310,4.7582,2.6162,12.3021,13.447
23.6320,4.8754,2.6904,12.0928,13.313
23.6320,10.5357,-2.5543,4.4535,11.720
23.6330,7.9489,-16.9704,3.6005,19.083
23.6340,1.5280,-20.6443,13.3184,24.615
23.6780,-1.7870,-17.1391,8.9583,19.421
23.6790,3.9591,-7.2100,-3.7485,9.039
23.6800,9.3889,-0.7390,2.8946,9.853
23.6810,9.1997,1.2033,8.1918,12.377
23.6810,7.9975,3.0481,8.5252,12.080
23.7440,6.4436,4.5348,7.8565,11.127
23.7450,4.2753,5.5725,7.0347,9.941
23.7460,2.6327,5.9471,6.3691,9.103
23.7460,0.8732,5.1065,5.4682,7.533
23.7470,-0.4103,3.5862,4.9158,6.099
23.7470,-0.7353,1.6124,3.4524,3.881
23.7480,-1.0421,-0.1443,2.1946,2.434
23.8100,-1.7271,-1.8793,1.7431,3.091
23.8130,-2.2782,-2.9542,2.0256,4.245
23.8150,-2.4214,-3.4760,0.9519,4.342
23.8170,-2.7721,-3.0188,-0.3769,4.116
23.8190,-2.9699,-1.2287,-0.5764,3.265
23.8200,-2.9490,0.2087,-1.5378,3.332
23.8210,-3.2072,0.9176,-2.2211,4.008
23.8730,-3.9605,0.9396,-2.2254,4.639
23.8770,-4.5311,1.0461,-1.4311,4.865
23.8800,-4.1900,1.5757,-0.6170,4.519
23.8820,-3.4634,2.3378,-0.1069,4.180
23.8840,-2.8274,2.9295,0.0793,4.072
23.8850,-2.0266,3.4789,0.4558,4.052
23.8890,-1.0654,3.8711,0.8213,4.098
23.9020,-0.1864,3.9795,1.4717,4.247
23.9090,1.0156,3.3226,2.5421,4.305
23.9170,2.0761,1.8175,1.2243,3.019
23.9870,2.5113,-0.0203,-3.2359,4.096
23.9870,1.5921,-1.4065,-7.4644,7.761
23.9880,-0.5016,-2.6383,-9.8921,10.250
23.9890,-2.1516,-3.6971,-10.6515,11.478
23.9900,-3.3400,-4.6700,-11.5579,12.905
23.9910,-3.7346,-4.1634,-10.9094,12.260
23.9920,-3.2020,-2.2602,-8.3520,9.226
24.0730,-3.4675,-1.6349,-5.5511,6.746
24.0740,-4.6148,-2.5641,-2.6833,5.922
24.0740,-5.8267,-3.8849,-1.4675,7.155
24.0740,-7.0872,-4.9666,-2.6689,9.056
24.0750,-8.1551,-5.0705,-5.6539,11.144
24.0760,-9.0713,-4.4112,-9.3606,13.761
24.0760,-10.2248,-4.6508,-10.2489,15.206
24.0770,-12.2151,-7.1740,-6.5422,15.604
24.0790,-12.2707,-8.7606,-0.9320,15.106
24.0890,-10.5379,-8.8200,3.1093,14.089
24.1090,-9.8389,-9.1458,2.3958,13.645
24.1130,-7.6311,-9.3218,-6.2921,13.591
24.1830,-2.8266,-8.8282,-9.8512,13.527
24.1840,1.5460,-8.6869,-2.6478,9.212
24.1840,3.5077,-9.1487,4.9596,10.982
24.1850,4.7319,-9.0289,9.6277,14.022
24.1860,4.8816,-9.0380,11.2484,15.233
24.1860,5.2041,-9.3587,11.1276,15.443
24.1870,5.3752,-9.5477,9.4365,14.460
24.2740,3.7970,-9.9265,4.2147,11.433
24.2750,0.5326,-9.5934,-3.4699,10.216
24.2750,-2.8724,-8.6823,-5.7857,10.822
24.2760,-2.4741,-6.8636,-2.7214,7.787
24.2760,2.4992,-3.7635,1.3243,4.708
24.2770,6.9900,-0.4762,3.2740,7.733
24.2780,8.1081,1.3165,3.7272,9.020
24.2780,7.4684,2.4694,4.2184,8.926
24.2780,6.0753,3.0642,4.4733,8.143
24.2790,4.4179,3.5463,5.0796,7.609
24.2900,3.4968,4.0492,5.7187,7.831
24.3000,2.6211,4.5514,6.0484,8.011
24.3250,2.1885,4.9901,6.0427,8.137
24.3300,1.8928,5.4828,6.0075,8.351
24.3320,1.6536,5.7084,6.0492,8.480
24.3380,1.8899,5.8638,6.0934,8.665
24.4380,1.9913,5.9640,6.3019,8.902
24.4420,2.3003,6.0490,6.7080,9.321
24.4450,2.7973,5.9871,7.5209,10.012
24.4480,3.1175,5.8302,8.6512,10.888
24.4500,3.2005,5.7802,9.4720,11.549
24.4520,2.8663,5.5577,9.4860,11.362
24.4540,2.1029,5.0825,9.2971,10.802
24.4560,1.5641,4.8917,9.4387,10.745
24.4590,2.3308,5.9297,8.0787,10.289
24.4610,3.6167,7.7730,5.7421,10.318
24.4640,3.3843,8.9426,4.3228,10.493
24.4660,1.6622,9.2193,3.4835,9.995
24.4720,-0.6415,8.6767,1.3211,8.800
24.4840,-3.2822,7.0087,-3.1488,8.355
24.4890,-4.8493,4.8824,-7.7871,10.392
24.5750,-4.6593,2.9153,-11.0538,12.345
24.5760,-4.2523,-0.7075,-15.4998,16.088
24.5760,-3.2532,-3.9430,-9.0638,10.406
24.5770,-3.0679,-7.6036,-4.0292,9.136
24.5780,-3.7635,-10.1999,-6.3221,12.577
24.5790,-5.0693,-11.9777,-12.1617,17.806
24.5790,-4.0804,-11.1121,-8.9116,14.817
24.5800,2.5645,-8.3029,10.2544,13.441
24.5810,8.4846,-10.7293,11.6474,17.966
24.5900,7.0982,-16.9193,-0.2529,18.350
24.6120,2.7270,-18.5028,-0.4643,18.708
24.6160,-0.5645,-15.2683,6.5922,16.640
24.6200,0.8706,-8.2528,8.6906,12.016
24.6900,5.2347,-0.9311,8.0859,9.677
24.6900,7.6476,2.3850,8.5869,11.743
24.6910,8.0133,3.9999,9.0844,12.757
24.6920,7.4134,5.3721,7.6991,11.962
24.6920,5.8516,6.5528,5.9075,10.587
24.6930,4.2408,7.2621,4.5051,9.540
24.6940,2.5884,7.5026,3.6995,8.756
24.7750,1.7232,7.0595,2.7302,7.763
24.7760,0.9082,5.9458,1.4452,6.186
24.7760,1.2016,4.5285,0.5387,4.716
24.7770,1.4797,2.5291,0.5650,2.984
24.7770,1.8853,0.6635,1.6933,2.620
24.7780,2.2516,-0.7883,3.5233,4.255
24.7780,1.9859,-1.9218,5.3441,6.016
24.7790,2.0236,-1.9240,7.9667,8.442
24.7790,1.7028,-0.9954,5.8160,6.141
24.7900,0.3319,-0.7448,1.5841,1.782
24.8000,-1.5741,-1.0143,-1.9023,2.669
24.8120,-3.3479,-1.1563,-3.4529,4.947
24.8340,-5.2244,-1.1342,-3.8385,6.581
24.8370,-6.8157,-1.1185,-3.5737,7.777
24.8400,-7.3129,-0.8040,-3.9580,8.354
24.9150,-6.5491,-0.3845,-4.8702,8.171
24.9200,-4.7354,0.4329,-3.3402,5.811
24.9230,-3.3595,1.2573,-1.5831,3.921
24.9270,-2.5723,1.6870,-0.4142,3.104
24.9310,-2.0357,1.4289,0.5040,2.538
24.9500,-0.8343,0.8332,0.2663,1.209
24.9540,0.6994,0.4171,-1.2288,1.474
24.9560,1.9690,-0.1439,-2.9404,3.542
24.9580,2.4636,-0.8864,-4.1120,4.875
24.9610,2.0111,-1.7201,-5.6096,6.202
24.9630,0.6372,-2.3990,-8.0630,8.436
24.9640,-1.0630,-2.6660,-10.2592,10.653
24.9680,-2.1503,-2.2944,-9.3630,9.877
24.9820,-3.1273,-1.6779,-6.6475,7.536
24.9880,-4.1828,-1.8215,-4.2121,6.209
25.0830,-5.6110,-2.7118,-2.2474,6.625
25.0840,-7.0247,-3.4684,-1.7977,8.038
25.0840,-8.4546,-3.9744,-2.7821,9.748
25.0850,-9.4985,-3.8439,-4.6833,11.266
25.0860,-9.8718,-3.2510,-6.7894,12.414
25.0860,-10.2671,-3.0212,-8.2364,13.505
25.0870,-11.4096,-4.2879,-7.3479,14.232
25.0880,-12.2728,-7.1067,-3.4300,14.591
25.0890,-11.0193,-8.5385,0.3110,13.944
25.0890,-8.5215,-8.8857,1.3247,12.383
25.1000,-5.9080,-8.2460,-3.0621,10.596
25.1230,-1.2193,-6.9674,-10.4645,12.631
25.1280,2.1928,-6.8526,-6.6915,9.826
25.1310,3.6833,-7.5711,3.2152,9.013
25.2090,3.3621,-7.9982,8.2692,11.986
25.2140,4.3027,-7.8730,8.8849,12.627
25.2210,6.0265,-8.1502,8.9824,13.544
25.2240,6.7310,-8.4112,8.7916,13.905
25.2280,6.7088,-8.3339,6.7816,12.667
25.2300,4.1209,-7.9583,1.0966,9.029
25.2320,-0.4578,-7.1018,-3.3641,7.872
25.2340,-0.3276,-7.1278,-3.2574,7.844
25.2360,-2.0965,-5.0166,-0.0053,5.437
25.2390,0.0168,-3.2952,2.7285,4.278
25.2410,2.6341,-1.3519,3.3713,4.487
25.2500,5.7495,0.7253,3.6846,6.867
25.2580,7.4413,2.0292,4.1742,8.770
25.2690,7.4505,2.7119,4.9552,9.350
25.3760,6.2620,2.7700,5.7433,8.937
25.3770,4.2103,2.7215,6.0717,7.874
25.3770,2.9236,2.9741,5.8874,7.215
25.3780,1.6004,3.0887,5.9252,6.871
25.3790,1.0309,3.5291,6.0269,7.060
25.3790,1.2641,3.9836,6.3421,7.595
25.3800,2.0980,4.5226,6.8429,8.466
25.3810,2.7930,5.0764,7.3027,9.322
25.3810,3.5244,5.9055,7.6677,10.300
25.3820,4.1949,6.6726,7.9585,11.201
25.3830,4.6814,7.4559,8.5501,12.272
25.3900,4.7130,7.8805,9.1082,12.934
25.3990,3.9433,7.9880,9.1469,12.768
25.4100,3.1072,7.9122,8.4094,11.957
25.4260,3.1496,8.0083,7.3553,11.321
25.4310,3.9147,8.5211,6.0180,11.142
25.4390,4.2107,8.8526,4.5122,10.792
25.5060,3.4378,8.6230,3.1523,9.804
25.5130,1.2130,7.5554,0.8390,7.698
25.5150,-2.2134,5.4793,-2.6135,6.462
25.5170,-5.0715,2.9831,-8.5904,10.412
25.5190,-5.4031,0.8815,-14.0547,15.083
25.5210,-5.4143,-2.9864,-16.4278,17.553
25.5230,-4.8812,-6.8846,-7.5817,11.345
25.5250,-5.0233,-11.1434,-1.1294,12.275
25.5370,-4.3840,-12.8831,-2.1944,13.784
25.5390,-2.6459,-12.9591,-9.7224,16.415
25.6250,-2.1987,-11.9854,-13.9739,18.541
25.6270,2.5625,-9.4143,-3.4496,10.349
25.6270,7.9404,-8.9223,6.2069,13.460
25.6280,7.6763,-11.8958,2.6896,14.411
25.6290,5.1837,-10.7258,8.5971,14.691
25.6300,3.9265,-8.7129,11.4352,14.903
25.6300,2.4467,-5.3338,9.4215,11.100
25.6310,2.1911,-1.6841,6.9443,7.474
25.6320,4.1492,2.3086,3.9115,6.152
25.6430,5.5617,4.4593,4.3787,8.366
25.7130,6.0308,5.6157,5.9267,10.150
25.7140,6.2126,6.5918,5.4352,10.564
25.7140,5.4360,7.3021,4.7078,10.249
25.7150,4.2243,7.4316,4.2662,9.554
25.7160,3.2882,6.9752,4.1343,8.750
25.7160,2.8950,5.8643,3.3658,7.355
25.7170,2.9147,4.1104,2.2693,5.526
25.7970,3.0705,2.1762,1.4025,4.016
25.8020,2.2902,-0.5924,2.1005,3.164
25.8070,1.3324,-3.1659,4.1094,5.356
25.8130,0.8399,-5.1373,8.5915,10.045
25.8170,0.5935,-5.5797,10.5139,11.918
25.8200,-0.1611,-4.4289,5.9054,7.383
25.8240,-1.0362,-2.6917,1.1324,3.099
25.8270,-2.8472,-1.4490,-5.2212,6.121
25.8310,-4.9237,-0.9317,-8.2666,9.667
25.8330,-5.6570,-0.0817,-7.5630,9.445
25.8360,-5.6028,0.6505,-4.8957,7.469
25.8400,-4.8362,1.4012,-2.1999,5.495
25.8450,-3.1977,2.2151,-1.6259,4.216
25.8880,-1.3761,3.1555,-2.0063,3.984
25.8910,0.1864,3.9087,-2.4777,4.632
25.8940,1.5953,3.8469,-1.5106,4.430
25.8980,2.6738,2.9567,0.0487,3.987
25.9010,3.4809,1.9253,0.2408,3.985
25.9190,3.6510,0.7434,0.0380,3.726
25.9220,2.9724,-0.2615,0.1407,2.987
25.9270,1.8675,-1.3622,-0.2110,2.321
25.9300,0.9491,-2.2834,-1.5530,2.920
25.9730,-0.1021,-3.4159,-5.2458,6.261
25.9740,-0.7960,-4.0602,-9.6525,10.502
25.9740,-1.5461,-3.6907,-11.6525,12.320
25.9750,-2.1088,-2.3993,-9.4782,10.002
25.9830,-3.1552,-1.7005,-5.0499,6.193
26.0310,-4.4769,-2.2232,-1.9573,5.368
26.0320,-6.1354,-2.9104,-0.1277,6.792
26.0330,-7.4664,-3.1547,0.4474,8.118
26.0330,-8.6232,-3.1554,-0.3939,9.191
26.0340,-9.3080,-3.2011,-3.2798,10.375
26.0370,-9.1144,-3.1625,-7.1986,12.037
26.1020,-8.9014,-3.2210,-8.1096,12.465
26.1030,-9.6843,-4.1423,-6.2378,12.241
26.1040,-11.0349,-6.0960,-3.6870,13.135
26.1050,-11.6415,-7.6792,-0.2714,13.949
26.1060,-10.9311,-7.6720,0.8791,13.384
26.1060,-9.0402,-6.5944,-0.9255,11.228
26.1090,-5.6051,-5.3504,-6.9404,10.403
26.1910,-0.2468,-4.6872,-12.7856,13.620
26.1960,3.5207,-4.7975,-6.8706,9.089
26.2000,4.2251,-5.4194,0.3929,6.883
26.2040,3.5128,-6.9414,6.4641,10.115
26.2080,3.2571,-7.8364,9.1633,12.489
26.2110,4.7397,-8.6451,10.6192,14.490
26.2150,5.9416,-9.3876,11.0846,15.694
26.2190,7.2757,-9.6435,9.0894,15.118
26.2220,7.4850,-9.6712,9.2307,15.322
26.2250,0.8445,-8.2926,-8.8199,12.136
26.2280,-1.4847,-6.5953,-6.6811,9.505
26.2310,-1.2904,-4.5239,0.2471,4.711
26.2430,0.0175,-2.4608,3.9687,4.670
26.3340,2.4212,0.0376,3.9784,4.657
26.3350,4.7324,1.9039,3.8244,6.375
26.3360,6.3477,3.3937,4.7068,8.600
26.3370,5.9646,3.8902,5.9638,9.289
26.3380,3.9434,3.7022,6.7547,8.654
26.3380,3.0067,3.6566,6.4698,8.017
26.3390,1.9896,3.4129,5.7163,6.949
26.3400,0.8617,3.0384,4.9320,5.856
26.3400,0.0014,2.7437,4.2504,5.059
26.3410,-0.0098,2.6322,4.7200,5.404
26.4370,0.8903,2.9815,5.9783,6.740
26.4440,1.9559,3.6583,7.1801,8.292
26.4500,2.9792,4.7196,8.2182,9.934
26.4550,3.3690,5.6776,8.6688,10.897
26.4590,3.2781,6.7545,9.0332,11.746
26.4640,2.9199,7.4559,9.1289,12.143
26.4670,2.7491,7.8469,8.5300,11.912
26.4710,2.7921,8.1997,7.5201,11.471
26.4740,2.7823,8.6665,6.3474,11.097
26.4760,3.5014,9.5906,4.6801,11.231
26.4800,4.1974,10.4246,2.8316,11.589
26.4830,3.5367,10.3337,0.2618,10.925
26.4860,0.7997,8.2144,-3.3185,8.895
26.4900,-2.8917,4.4644,-7.3954,9.110
26.4930,-4.4032,1.6301,-9.8525,10.914
26.5060,-4.0693,-1.3369,-12.8540,13.549
26.5090,-3.5241,-4.2662,-9.8124,11.265
26.5930,-2.8134,-7.8026,-3.0582,8.840
26.5930,-2.5591,-10.5039,-1.5955,10.928
26.5940,-2.4703,-11.8306,-5.5385,13.294
26.5950,-2.9914,-10.2154,-8.2204,13.449
26.5960,-1.3982,-6.3297,-4.8094,8.072
26.5970,3.9352,-3.5595,5.4087,7.577
26.5970,7.8418,-5.1455,8.3018,12.526
26.5980,5.5495,-9.6067,2.2583,11.322
26.5990,1.8601,-10.5421,5.2039,11.903
26.6690,0.0560,-9.5451,7.2184,11.967
26.6700,-0.9043,-6.8788,4.1842,8.102
26.6700,1.2649,-2.8240,2.2134,3.805
26.6710,6.1654,1.3519,3.5459,7.240
26.6710,7.7144,2.3612,6.9114,10.623
26.6720,7.9531,3.1085,7.0554,11.077
26.6720,7.4672,3.7127,6.1889,10.385
26.7420,5.8207,4.1366,5.9588,9.300
26.7450,4.0645,4.3616,6.4591,8.790
26.7480,2.9452,4.1602,5.5855,7.562
26.7510,2.2472,3.2440,3.8245,5.495
26.7530,2.2260,1.9408,2.6971,4.000
26.7550,2.5114,0.3489,1.7528,3.082
26.7570,2.2145,-1.1562,1.3909,2.859
26.7590,1.3686,-2.5773,2.9318,4.137
26.7610,0.4710,-2.7191,6.1018,6.697
26.8150,-0.3271,-1.9277,2.4372,3.125
26.8190,-1.4193,-0.5919,-1.6108,2.227
26.8230,-2.6122,0.5463,-6.3040,6.846
26.8270,-3.4634,0.8665,-8.7160,9.419
26.8310,-4.2518,0.9439,-8.6757,9.708
26.8340,-5.2628,0.7776,-6.6490,8.515
26.8370,-6.1297,0.7432,-3.1463,6.930
26.8390,-5.3437,1.3949,-1.8188,5.815
26.8550,-4.2690,2.1489,-1.4662,4.999
26.8590,-3.6753,2.3844,-0.9039,4.473
26.9330,-2.9803,2.0815,-0.0038,3.635
26.9360,-2.2208,1.4675,0.9944,2.842
26.9380,-1.5312,0.7136,1.5900,2.320
26.9550,-1.0139,0.2898,1.1749,1.579
26.9580,-0.4009,-0.0616,0.1936,0.449
26.9590,0.3891,-0.3703,-1.3296,1.434
26.9610,1.3481,-0.7581,-3.6422,3.957
26.9640,1.7125,-1.0813,-5.4508,5.815
26.9650,0.7331,-1.6058,-5.9703,6.226
26.9660,-1.4929,-2.2082,-5.5129,6.123
27.0030,-3.8037,-2.1957,-5.4379,6.990
27.0040,-5.1067,-2.0896,-5.4873,7.782
27.0050,-5.9367,-2.6466,-5.3131,8.395
27.0050,-6.2459,-3.6850,-5.0508,8.837
27.0130,-5.8083,-4.3624,-5.2115,8.940
27.0500,-4.5532,-4.4166,-5.9764,8.715
27.0510,-3.2468,-4.0365,-7.1905,8.862
27.0520,-2.5087,-3.6429,-8.0669,9.200
27.0530,-2.8493,-3.5207,-8.3784,9.524
27.0580,-5.7076,-4.9103,-7.3156,10.498
27.0790,-9.0039,-7.5076,-4.9468,12.724
27.0840,-11.8572,-10.1308,-1.4555,15.663
27.0900,-12.5884,-11.1887,0.8212,16.862
27.1330,-11.4427,-10.2913,0.4160,15.395
27.1380,-8.3396,-7.5626,-4.0775,11.974
27.1410,-2.9494,-5.2814,-12.8210,14.176
27.1440,1.9187,-4.7249,-12.8099,13.788
27.1470,4.7795,-5.5507,-1.5372,7.484
27.1500,5.2721,-6.4976,8.4598,11.899
27.1800,4.8199,-7.0552,13.2090,15.732
27.1810,4.3690,-7.1068,13.1799,15.598
27.1810,4.7809,-6.8673,12.2768,14.857
27.2320,6.2864,-6.6334,8.9723,12.807
27.2330,8.1934,-7.3281,-3.3976,11.506
27.2340,5.2846,-7.8368,-11.2530,14.696
27.2350,0.7475,-7.8514,-9.1986,12.117
27.2360,0.8269,-7.8877,-8.9827,11.983
27.2400,0.8753,-4.6092,3.9740,6.148
27.2610,3.4079,-1.6869,4.1706,5.644
27.2670,6.0169,1.5168,3.9261,7.343
27.2700,6.4612,3.6404,4.9189,8.899
27.3190,5.4635,4.6652,6.2144,9.499
27.3230,3.8501,5.2654,6.7942,9.419
27.3260,1.9752,5.1631,7.0908,8.991
27.3290,0.1667,4.8245,6.9933,8.498
27.3330,-0.7760,4.5567,6.5662,8.030
27.3360,-0.7352,4.2542,6.1919,7.548
27.3390,-0.4261,4.0111,6.0204,7.247
27.3540,0.2117,3.8215,6.2230,7.306
27.3580,0.9243,3.8568,7.3348,8.338
27.4100,1.9981,4.4647,8.8499,10.112
27.4160,3.0740,5.2889,10.0344,11.752
27.4210,3.7414,6.1729,10.4242,12.679
27.4240,3.5173,6.6820,10.1103,12.619
27.4270,3.3129,7.3747,8.5326,11.754
27.4320,2.8552,7.8223,7.5182,11.219
27.4340,2.6206,8.5262,6.4709,11.020
27.4510,2.6778,9.3461,5.3667,11.105
27.4540,2.1128,9.9872,4.0500,10.982
27.4580,1.4784,10.1092,1.8255,10.379
27.4720,-1.4252,8.2745,-3.9794,9.292
27.5030,-5.1279,5.1364,-11.4858,13.587
27.5040,-6.7671,1.8878,-12.7489,14.556
27.5050,-5.2293,-0.7310,-13.1445,14.165
27.5100,-2.0902,-3.8677,-6.9780,8.247
27.5180,-0.1332,-6.8608,-4.5387,8.227
27.5300,-0.1944,-9.3887,-5.0513,10.663
27.5400,-0.9058,-9.5125,-5.4313,10.991
27.6720,0.3630,-6.6635,-3.6091,7.587
27.6730,4.2730,-3.6528,6.7030,8.748
27.6730,9.0423,-4.8009,10.5134,14.675
27.6740,11.7747,-14.2471,-0.1391,18.484
27.6750,5.6761,-17.7913,5.5566,19.484
27.6760,-0.4814,-15.8241,10.6539,19.082
27.6760,-3.1527,-11.0113,9.0750,14.613
27.6770,-0.5823,-3.6744,3.9614,5.434
27.6780,3.8585,1.4657,1.8875,4.539
27.6780,7.2830,3.8898,4.6335,9.468
27.6790,8.3980,4.6634,5.7730,11.207
27.6790,8.1026,5.0946,5.2800,10.931
27.6800,7.0354,5.1117,4.2535,9.681
27.6810,5.1369,4.6383,3.4615,7.738
27.6890,3.9271,4.0717,3.0453,6.425
27.7090,2.9055,3.0044,3.0176,5.155
27.7120,2.4277,1.5371,3.7139,4.696
27.7190,2.4911,-0.2098,4.0188,4.733
27.7880,2.2279,-1.5865,4.2078,5.019
27.7900,1.3219,-2.5661,5.8814,6.552
27.7930,0.7606,-2.6251,6.5042,7.055
27.7960,0.4016,-1.9398,5.8077,6.136
27.8010,-0.0441,-0.7500,4.5061,4.568
27.8040,-0.9701,0.2293,0.7485,1.247
27.8070,-2.1340,0.5912,-3.2508,3.933
27.8100,-3.1993,0.8312,-5.8661,6.733
27.8130,-3.9796,0.9846,-6.5401,7.719
27.8200,-4.7805,0.9450,-5.5798,7.408
27.8290,-5.0780,0.9039,-3.5820,6.280
27.8400,-4.8911,0.7102,-1.8424,5.275
27.9080,-4.4741,0.6420,-1.0946,4.651
27.9080,-3.8485,0.8945,-0.4906,3.981
27.9090,-3.0592,1.3699,0.1175,3.354
27.9100,-2.6934,1.8467,0.5614,3.314
27.9110,-2.2527,2.0804,1.1562,3.277
27.9370,-1.7172,0.9823,1.4840,2.473
27.9390,-1.1765,-0.4845,-1.2599,1.791
27.9400,-0.8261,-1.4393,-4.7833,5.063
27.9420,-0.2793,-2.0183,-6.4727,6.786
27.9430,0.1073,-2.2561,-5.8634,6.283
27.9530,-0.0194,-2.4757,-6.0002,6.491
27.9580,-0.7391,-2.4966,-7.5560,7.992
28.0160,-1.9776,-2.3059,-7.8968,8.461
28.0170,-3.1322,-1.8828,-6.0766,7.091
28.0180,-4.2146,-1.9655,-3.9572,6.106
28.0180,-5.1969,-2.7427,-1.8879,6.172
28.0190,-6.1705,-3.4222,-0.5322,7.076
28.0200,-6.7277,-3.6695,-1.3029,7.773
28.0290,-6.6358,-3.5877,-3.8669,8.477
28.0390,-6.4786,-3.3947,-6.5844,9.841
28.0640,-6.3024,-3.0038,-9.3043,11.632
28.0680,-6.6365,-2.7233,-10.4168,12.648
28.0710,-8.2386,-3.1502,-9.4659,12.938
28.1200,-10.0203,-5.0858,-6.2366,12.852
28.1250,-9.8897,-7.5864,-1.1529,12.518
28.1300,-8.6192,-8.4393,1.9503,12.220
28.1330,-7.1030,-9.2180,-2.2722,11.857
28.1360,-4.0389,-9.2470,-8.2130,13.010
28.1390,-0.6561,-8.4614,-3.0063,9.004
28.1410,1.4741,-8.1410,7.7774,11.355
28.1550,2.1143,-7.7252,14.1151,16.229
28.1590,2.8330,-7.2728,15.5429,17.393
28.1730,4.3548,-7.2253,14.2665,16.574
28.2140,5.0480,-7.9429,9.1843,13.150
28.2150,2.5690,-9.7806,0.4157,10.121
28.2160,-2.5120,-11.6411,-7.1225,13.876
28.2160,-6.4804,-11.9186,-6.5638,15.071
28.2230,0.1463,-8.0631,-1.2457,8.160
28.2290,5.7266,-4.7786,3.7495,8.348
28.2390,8.3221,-2.0763,4.1643,9.535
28.2570,7.5129,-0.5323,2.4611,7.924
28.2580,5.8546,0.8212,2.5379,6.434
28.3370,4.3780,1.7732,3.9065,6.130
28.3400,3.6588,3.0599,5.4095,7.212
28.3420,3.0284,3.9968,6.4961,8.206
28.3440,2.6603,4.8354,6.7713,8.736
28.3460,2.3649,5.2952,7.1769,9.227
28.3470,2.1466,5.5460,7.8554,9.853
28.3500,2.6542,6.0697,7.9010,10.311
28.3510,3.5200,6.4656,7.2602,10.339
28.3530,3.5141,6.3618,7.4775,10.428
28.3580,5.1437,5.8839,6.4966,10.163
28.3740,5.6411,5.3937,6.5171,10.168
28.3780,5.8278,4.8799,7.3224,10.554
28.4410,5.4607,4.5202,8.1920,10.833
28.4410,4.3207,4.3980,8.8214,10.762
28.4420,2.8810,4.5231,8.6924,10.213
28.4430,1.6889,4.8423,8.3179,9.772
28.4440,0.5812,5.4513,7.1590,9.017
28.4440,0.4081,6.6562,5.6976,8.771
28.4630,0.0426,8.0740,3.9650,8.995
28.4670,-1.0388,8.9469,1.9772,9.221
28.4710,-3.0018,8.9674,-0.3025,9.461
28.5210,-5.6186,7.6818,-4.1174,10.370
28.5260,-7.7828,5.3878,-8.9345,13.016
28.5300,-8.3997,3.1261,-9.3788,12.973
28.5330,-8.8476,0.1355,-7.1470,11.374
28.5370,-8.4711,-2.9076,-3.4994,9.616
28.5410,-6.4774,-6.0592,-1.9256,9.076
28.5430,-4.0041,-7.4371,-3.7190,9.229
28.5590,-2.4904,-6.8819,-5.9064,9.405
28.5630,-0.6180,-4.5795,-4.4918,6.444
28.6190,4.0072,-1.5916,3.8804,5.801
28.6250,8.9648,-1.1174,10.4963,13.849
28.6290,12.8598,-10.9113,-12.3958,20.931
28.6340,12.3790,-18.2964,-5.6312,22.797
28.6390,8.2913,-20.2404,12.8830,25.385
28.6420,0.6982,-16.9518,16.3114,23.535
28.6460,-0.8174,-12.0099,10.5728,16.022
28.6500,0.9697,-5.0353,0.7405,5.181
28.6530,3.7377,1.3293,-3.2596,5.134
28.6600,4.9984,4.0576,1.2312,6.555
28.6730,6.2488,5.9273,3.9258,9.465
28.6790,6.5060,7.2612,4.1871,10.611
28.7480,6.5247,8.0748,4.0430,11.141
28.7490,5.7480,8.1156,5.1344,11.192
28.7500,4.4581,6.8362,6.0244,10.144
28.7510,3.9969,4.6237,5.4983,8.221
28.7510,3.4764,2.5913,4.9770,6.601
28.7520,2.8424,0.3570,3.7885,4.750
28.7540,1.8269,-1.4142,3.4331,4.138
28.7610,0.8738,-2.9718,3.5990,4.748
28.8240,0.1653,-3.9104,3.7251,5.403
28.8290,-0.5105,-4.2408,3.4773,5.508
28.8320,-1.1659,-3.4904,2.0583,4.216
28.8380,-2.2990,-1.7685,0.3320,2.919
28.8410,-3.4237,-0.3966,-0.9728,3.581
28.8440,-4.9377,0.0832,-1.8483,5.273
28.8470,-6.4642,-0.0345,-1.6089,6.662
28.8520,-7.4541,0.0447,-1.0815,7.532
28.8550,-7.4717,0.5069,-1.6913,7.677
28.8620,-6.8441,1.2828,-1.3769,7.098
28.8780,-5.4384,2.1007,-0.8517,5.892
28.8810,-3.7439,3.0175,-0.0508,4.809
28.9480,-2.6712,3.6063,0.3452,4.501
28.9630,-1.6884,4.0180,0.3550,4.373
28.9660,-0.7243,3.5258,0.0836,3.600
28.9710,1.1569,1.5490,-2.3838,3.069
28.9740,3.4666,-0.2964,-8.1255,8.839
28.9770,4.3218,-1.9838,-10.3343,11.376
28.9800,3.0428,-2.5767,-6.7744,7.861
28.9830,0.5158,-3.3211,-3.1014,4.573
28.9860,-1.8933,-4.7092,-2.9194,5.855
28.9890,-3.7009,-6.0105,-5.0671,8.689
28.9950,-4.6023,-5.7884,-6.9670,10.160
29.0070,-4.7282,-3.7977,-6.7476,9.072
29.0100,-5.1321,-2.4319,-5.0644,7.609
29.1020,-5.7895,-2.4539,-3.2835,7.094
29.1030,-6.4149,-2.9766,-2.2508,7.421
29.1040,-6.5313,-3.7176,-2.9244,8.064
29.1050,-6.3678,-4.6267,-5.4492,9.573
29.1060,-6.5484,-4.7828,-9.4363,12.442
29.1060,-7.9236,-5.0566,-12.5667,15.693
29.1080,-10.3212,-6.8844,-11.0019,16.582
29.1090,-12.0832,-9.4111,-4.9417,16.093
29.1100,-11.0769,-9.3761,1.7875,14.622
29.1110,-9.1809,-7.9420,4.8100,13.058
29.1320,-7.3248,-6.4424,-0.2906,9.759
29.1370,-2.6725,-4.9983,-10.1924,11.662
29.1400,1.2338,-5.0441,-8.2209,9.724
29.2220,3.8414,-5.6823,-0.4406,6.873
29.2250,4.0995,-6.8768,4.7822,9.326
29.2260,4.7548,-7.2066,7.2064,11.246
29.2280,4.7309,-7.2398,7.6209,11.527
29.2300,4.8950,-7.2516,7.5096,11.530
29.2320,4.4478,-7.3845,7.1555,11.203
29.2330,2.7941,-7.7858,4.7824,9.555
29.2360,0.5574,-8.0743,1.1924,8.181
29.2380,-3.7673,-7.9218,-0.2762,8.776
29.2400,-6.5157,-7.6726,-0.1656,10.067
29.2760,-3.9589,-5.8827,-0.1525,7.092
29.2810,1.5541,-2.9629,1.3476,3.607
29.2840,4.6736,-0.9072,3.1785,5.724
29.2880,5.8846,0.5182,4.7843,7.602
29.2910,5.7092,1.1029,5.1091,7.740
29.3050,4.9409,1.2713,5.4546,7.469
29.3100,4.2969,1.5663,5.8163,7.399
29.3190,3.5845,2.0919,5.8401,7.165
29.3630,3.1073,2.5982,6.0427,7.275
29.3630,2.8937,3.3527,6.1368,7.568
29.3640,3.0374,4.0760,6.2426,8.050
29.3650,3.4465,4.8997,6.4448,8.799
29.4320,3.7548,5.6313,6.4992,9.383
29.4320,4.3154,6.3754,6.6735,10.188
29.4330,4.8256,7.0143,7.1370,11.110
29.4330,4.9792,7.5842,7.7685,11.944
29.4340,4.5138,7.6518,8.3164,12.169
29.4350,3.0835,7.2324,8.9902,11.943
29.4350,2.0500,6.6782,8.9338,11.341
29.4430,1.4621,6.3506,8.3991,10.631
29.4490,1.9926,6.7155,7.2211,10.060
29.4680,3.0955,7.6786,5.4661,9.921
29.4730,4.0552,8.7768,3.2301,10.194
29.5430,3.6149,9.4043,0.6807,10.098
29.5470,0.1008,8.2706,-2.6467,8.684
29.5500,-3.9169,6.3074,-5.8036,9.424
29.5540,-7.4444,3.8908,-9.1271,12.404
29.5570,-9.9285,1.2766,-9.2691,13.643
29.5590,-10.5454,-1.0058,-5.9652,12.157
29.5620,-8.8685,-2.3805,-1.3455,9.281
29.5650,-6.4219,-3.5868,-3.1999,8.022
29.5670,-5.0013,-4.9591,-10.8889,12.968
29.5710,-3.7093,-7.8953,-22.3119,23.957
29.5840,3.4651,-8.7522,-10.1609,13.851
29.5930,13.0799,-11.9463,-0.6391,17.726
29.6340,17.3543,-16.6467,9.1202,25.719
29.6350,17.4180,-16.5065,24.2819,34.139
29.6360,9.6775,-15.1275,20.2588,27.072
29.6370,2.3818,-10.9772,6.2666,12.862
29.6830,2.0228,-10.8377,6.0374,12.570
29.6840,0.3481,-0.6132,1.0453,1.261
29.6850,1.9090,0.9161,7.9543,8.231
29.6850,4.2484,3.3692,8.6236,10.187
29.6860,5.2519,5.1968,7.4327,10.480
29.7350,6.4062,6.4468,4.6543,10.211
29.7400,5.7352,5.9083,2.8279,8.706
29.7420,4.5450,5.2023,2.8090,7.457
29.7440,4.4175,4.1294,2.3771,6.497
29.7470,3.9107,2.2446,1.9999,4.933
29.7500,2.5879,0.0763,2.5959,3.666
29.7530,0.9156,-2.1658,3.7111,4.393
29.8010,-0.4617,-3.8147,4.8528,6.190
29.8050,-1.7438,-4.6802,4.6870,6.849
29.8070,-2.8127,-4.4408,2.9787,6.042
29.8100,-2.8823,-2.7780,0.5726,4.044
29.8130,-3.9443,-1.8537,-3.7020,5.718
29.8160,-5.7849,-1.6736,-5.6644,8.268
29.8200,-6.4397,-1.3394,-3.2937,7.356
29.8620,-5.7194,-0.1838,-1.0445,5.817
29.8680,-5.0846,1.2318,0.2507,5.238
29.8730,-4.5606,2.3921,0.7662,5.207
29.8760,-4.1401,3.4228,1.1826,5.500
29.8800,-3.5112,4.1226,1.2353,5.554
29.8820,-2.4194,4.3901,0.8294,5.081
29.8940,-1.5773,4.1882,0.5869,4.514
29.9060,-0.9539,3.5037,0.4949,3.665
29.9480,-0.1310,2.2172,0.2728,2.238
29.9490,1.5757,-0.0712,-2.3698,2.847
29.9500,3.8844,-1.9964,-9.8175,10.745
29.9500,5.1490,-3.3454,-13.8950,15.191
29.9510,4.1885,-3.5011,-10.7417,12.049
29.9600,1.5448,-3.7785,-6.9199,8.034
29.9690,-1.4248,-4.2760,-5.9413,7.457
30.0280,-4.3476,-3.5939,-7.3978,9.303
30.0290,-5.0573,-2.2168,-7.4371,9.263
30.0290,-5.1873,-1.7324,-4.8301,7.297
30.0300,-5.7874,-2.2397,-2.2672,6.607
30.0300,-6.9159,-3.2008,-1.0371,7.691
30.0310,-7.9664,-3.9146,-1.6457,9.028
30.0430,-8.0326,-3.9108,-1.5780,9.072
30.0490,-8.9215,-3.6162,-6.7973,11.784
30.0680,-8.6478,-2.9454,-8.8837,12.743
30.0730,-9.4423,-3.5175,-9.1516,13.612
30.1390,-11.4115,-5.7941,-6.4045,14.311
30.1430,-11.8087,-8.0697,-1.5590,14.387
30.1450,-9.8560,-8.4572,2.2720,13.184
30.1470,-7.8496,-8.5469,-0.0804,11.605
30.1500,-4.8403,-8.2756,-8.7442,12.976
30.1510,0.2519,-7.6753,-11.1663,13.552
30.1530,3.2641,-7.7977,-3.0767,8.996
30.1560,3.7754,-8.3411,6.3207,11.126
30.1580,4.0864,-8.3033,6.6701,11.408
30.1700,4.2459,-8.3425,11.5445,14.863
30.1830,5.4006,-9.3129,13.4370,17.218
30.2370,6.3434,-9.8284,10.0120,15.397
30.2380,6.2020,-10.4945,0.3228,12.194
30.2390,1.4037,-10.3840,-10.5914,14.899
30.2400,-3.8688,-9.9096,-10.4158,14.888
30.2410,-1.0758,-7.2494,-2.2636,7.670
30.2420,-0.8884,-7.2869,-2.0850,7.631
30.2490,7.5383,-0.6027,3.8382,8.481
30.2670,7.4542,0.9297,3.4432,8.263
30.2700,6.0498,2.0044,4.0027,7.526
30.3390,4.3197,2.6321,4.8049,6.977
30.3420,3.2696,3.5910,5.6095,7.420
30.3480,2.4279,3.8771,6.2140,7.716
30.3510,1.8023,4.4075,5.8483,7.542
30.3540,1.7329,4.9980,5.3055,7.492
30.3570,1.8305,5.5587,4.9164,7.643
30.3600,2.1733,5.9958,5.0334,8.125
30.3620,2.7058,6.3556,5.5182,8.841
30.3650,3.1384,6.5034,6.0560,9.424
30.3720,3.6737,6.6476,6.7226,10.143
30.3790,4.3188,6.9064,7.4216,11.020
30.3980,4.7494,7.2437,8.0380,11.817
30.4740,4.7236,7.5129,8.8101,12.505
30.4780,4.3002,7.3607,8.6836,12.169
30.4810,3.1042,6.5322,8.6194,11.252
30.4840,2.0521,5.7790,8.6445,10.599
30.4860,1.5432,5.2648,7.3356,9.160
30.4900,1.4380,5.2955,5.4521,7.735
30.4930,1.8503,6.0317,2.1771,6.674
30.4950,1.6209,6.5866,-0.7777,6.828
30.4980,0.6903,6.6854,-4.2981,7.978
30.5010,-1.1723,6.0581,-7.4921,9.706
30.5040,-4.8288,4.1337,-9.2358,11.212
30.5190,-7.7458,1.9032,-9.8235,12.654
30.5220,-9.8808,-0.9635,-7.9981,12.749
30.5830,-9.3395,-3.3283,-2.8543,10.317
30.5840,-7.1872,-5.6161,-0.7641,9.153
30.5850,-5.5323,-6.9120,-4.1621,9.783
30.5850,-4.7115,-7.1105,-8.5489,12.076
30.5860,-3.2296,-6.3238,-10.4436,12.629
30.5870,3.8864,-2.6225,3.2398,5.699
30.5950,10.2808,-2.2328,9.3601,14.082
30.5990,18.4791,-10.6896,-8.4661,22.966
30.6640,18.6879,-16.3407,-3.1674,25.026
30.6650,9.7559,-17.1939,6.1195,20.694
30.6660,-0.1371,-15.2026,10.0795,18.241
30.6670,-4.2395,-9.4887,7.6611,12.911
30.6670,-2.5299,-3.4962,7.1348,8.338
30.6680,0.4846,0.8041,7.4229,7.482
30.6690,2.4227,3.4994,7.3227,8.470
30.7250,3.2137,5.3967,7.0095,9.412
30.7300,3.9637,6.9304,6.5915,10.353
30.7320,4.1278,7.5330,5.5318,10.217
30.7350,3.7459,7.4294,4.3125,9.371
30.7390,4.0741,6.6949,1.9191,8.069
30.7410,3.8768,5.1051,0.0597,6.411
30.7440,3.2585,3.2418,-0.7046,4.650
30.7820,2.4448,0.9779,-0.5303,2.686
30.7870,1.7371,-0.9730,0.3699,2.025
30.7910,0.1611,-3.0416,2.9599,4.247
30.7940,-1.0729,-4.1280,4.9545,6.537
30.7970,-1.4330,-3.9274,5.6518,7.030
30.8010,-1.9969,-1.7105,8.1358,8.550
30.8100,-4.2370,-1.1866,-0.5345,4.432
30.8190,-5.4283,-1.2360,-4.8961,7.414
30.8350,-5.0282,-0.6464,-5.6004,7.554
30.8390,-4.2705,0.3871,-4.1531,5.970
30.9010,-3.8437,1.2891,-2.0902,4.561
30.9030,-3.3471,2.0153,-1.0700,4.051
30.9060,-2.8055,2.5783,-0.7293,3.880
30.9090,-2.2555,2.8583,-0.4351,3.667
30.9110,-1.6477,2.9203,0.2255,3.361
30.9210,-1.0872,2.9306,1.0132,3.286
30.9250,-0.5988,2.7324,2.1991,3.558
30.9280,-0.0889,2.2782,3.0074,3.774
30.9300,1.2690,1.4192,1.6144,2.496
30.9430,2.8362,0.0717,-2.2041,3.593
30.9540,4.1193,-1.4147,-6.9494,8.201
30.9640,2.4288,-3.5229,-8.8145,9.798
30.9690,-0.2413,-4.8757,-9.2768,10.483
31.0050,-2.6659,-5.8637,-10.1868,12.052
31.0060,-3.6524,-5.7667,-10.3409,12.391
31.0070,-2.0499,-3.3113,-8.5579,9.402
31.0090,-0.7369,-1.5646,-6.0890,6.330
31.0180,-1.1500,-1.4207,-3.7990,4.216
31.0290,-2.6354,-2.3009,-2.4619,4.278
31.0390,-4.5428,-3.6330,-1.8070,6.091
31.0630,-6.2407,-4.3290,-2.3637,7.954
31.0660,-7.9203,-4.3298,-4.1405,9.931
31.0700,-9.0826,-3.9177,-6.1349,11.639
31.1480,-10.5168,-4.0729,-7.5945,13.597
31.1540,-12.3082,-5.9362,-6.4346,15.104
31.1600,-13.2267,-8.4354,-1.8320,15.794
31.1630,-11.7952,-8.7235,2.1187,14.823
31.1660,-10.3693,-8.1728,1.3512,13.272
31.1700,-8.4762,-7.4828,-4.1483,12.044
31.1740,-3.2967,-6.0436,-12.3784,14.164
31.1780,1.7566,-5.6255,-13.5414,14.768
31.1810,5.8398,-6.0959,-5.5560,10.106
31.1830,6.2862,-7.4266,3.3626,10.295
31.1860,5.1469,-8.4263,8.3307,12.919
31.1930,4.9530,-8.5130,9.9954,14.033
31.2000,4.7973,-8.5060,10.0449,14.009
31.2140,5.0404,-7.9824,8.9273,12.993
31.2170,6.0684,-6.8010,2.6665,9.497
31.2870,3.8791,-5.5015,-4.3612,8.021
31.2880,0.2622,-4.5932,-7.0864,8.449
31.2880,-1.0081,-3.8777,-4.0207,5.676
31.2890,-0.1125,-2.8386,-0.2097,2.849
31.2890,2.5127,-1.0075,1.5668,3.128
31.2900,4.9147,0.6695,2.3399,5.484
31.2910,5.9553,1.9628,3.8777,7.373
31.3580,5.5610,2.7194,4.8292,7.851
31.3630,4.3800,3.0273,5.2597,7.484
31.3680,3.0658,3.0470,5.3023,6.841
31.3720,1.6760,3.0635,4.6815,5.840
31.3760,1.6261,3.0345,4.7964,5.904
31.3800,0.0327,2.9877,4.3578,5.284
31.3820,0.4257,3.0781,4.8082,5.725
31.3850,1.6310,3.3828,5.6577,6.791
31.3870,2.4499,3.8146,6.4809,7.909
31.3910,3.0151,4.5008,7.3174,9.105
31.4030,3.4047,5.2497,8.1712,10.292
31.4570,3.7220,6.1928,8.8687,11.439
31.4620,3.6698,6.8377,9.3494,12.150
31.4670,3.1652,7.2210,8.9790,11.949
31.4700,2.3023,7.1443,8.2323,11.141
31.4740,1.5408,7.2401,7.4716,10.517
31.4780,2.2477,8.1393,6.0250,10.373
31.4810,3.2673,9.5138,3.9923,10.823
31.4840,3.5213,10.7833,1.6620,11.465
31.4990,1.3780,11.0388,-1.1902,11.188
31.5030,-2.9112,9.1751,-6.9925,11.898
31.5550,-6.0781,6.1246,-12.6018,15.273
31.5620,-6.1005,3.6479,-12.8544,14.689
31.5650,-6.1698,0.8667,-10.2687,12.011
31.5680,-6.1807,0.9178,-10.3690,12.106
31.5700,-2.8562,-5.3048,1.4053,6.187
31.5730,-0.7427,-8.4510,-5.8430,10.301
31.5760,-0.5442,-11.0209,-16.0171,19.450
31.5790,2.7121,-10.3575,-8.0780,13.412
31.5920,10.3184,-11.7921,3.5350,16.063
31.6490,17.9840,-19.9281,4.4514,27.210
31.6500,13.9998,-21.5927,12.5640,28.637
31.6510,2.8607,-16.8438,12.8156,21.357
31.6520,-1.5846,-9.6647,6.2441,11.615
31.6530,-0.0419,-1.2748,3.9339,4.135
31.6530,2.1055,2.5211,6.1347,6.959
31.6700,3.5317,4.4299,8.2483,10.007
31.6740,4.2592,5.9123,7.7809,10.660
31.7210,4.9215,7.1181,5.8627,10.453
31.7260,5.1514,7.8244,3.4666,9.989
31.7290,4.5242,7.7221,1.8204,9.133
31.7310,3.9048,6.7134,0.8512,7.813
31.7330,4.2283,5.4408,0.1397,6.892
31.7350,4.2202,3.9266,-0.0463,5.765
31.7420,3.5537,1.5742,0.5542,3.926
31.7490,2.6251,-0.7799,1.7527,3.251
31.7650,1.1241,-3.4114,3.7138,5.167
31.7680,-0.4359,-5.0548,5.7908,7.699
31.8290,-1.8013,-5.6123,7.1738,9.285
31.8300,-2.6426,-4.0906,7.6888,9.101
31.8310,-4.2291,-2.8766,-1.8486,5.439
31.8320,-5.7305,-2.0576,-7.3891,9.575
31.8320,-5.8284,-1.3082,-6.5375,8.856
31.8330,-4.7306,-0.0320,-3.2345,5.731
31.8400,-3.9499,1.3765,-1.1916,4.349
31.8500,-3.6434,2.2376,0.0186,4.276
31.8730,-3.6211,2.2261,-0.0999,4.252
31.8770,-2.6737,3.8471,1.0672,4.805
31.8800,-2.2132,3.7413,0.8834,4.436
31.9510,-1.4498,3.2297,0.7897,3.627
31.9630,-0.7002,2.5536,0.9231,2.804
31.9650,0.7139,1.9816,0.9473,2.310
31.9690,2.3783,1.1649,0.4030,2.679
31.9710,4.3930,-0.1274,-2.7023,5.159
31.9740,5.4516,-1.2648,-7.5753,9.418
31.9770,3.6331,-2.5318,-10.2085,11.128
31.9800,0.9830,-3.0524,-9.3090,9.846
31.9820,-1.5202,-3.0651,-7.6899,8.417
31.9850,-3.6201,-2.8258,-7.1937,8.535
31.9900,-4.7025,-2.3767,-7.0552,8.806
32.0010,-4.9362,-2.2789,-6.7366,8.657
32.0120,-5.0571,-2.7101,-5.7001,8.088
32.0180,-5.3767,-3.1897,-4.7760,7.867
32.0690,-5.7715,-3.6649,-4.0004,7.921
32.0700,-6.1575,-3.9291,-3.6660,8.173
32.0700,-7.0482,-4.0096,-3.9133,9.004
32.0710,-8.2594,-3.8450,-5.0230,10.403
32.0710,-9.7795,-3.8304,-7.1910,12.729
32.1530,-11.6021,-5.4053,-7.7369,14.956
32.1560,-13.2259,-7.9325,-4.0102,15.935
32.1600,-12.9036,-9.8066,0.8230,16.228
32.1620,-11.4166,-10.0252,2.1497,15.345
32.1660,-7.5661,-8.3792,-3.4311,11.800
32.1690,-2.3785,-6.5772,-11.6698,13.605
32.1720,3.0027,-5.9595,-7.8620,10.312
32.1770,5.8727,-6.2692,1.4060,8.704
32.1800,6.1550,-6.2386,1.7406,8.935
32.1820,4.7630,-7.6697,9.6002,13.179
32.1850,4.5684,-7.6857,9.3731,12.954
32.1940,4.3847,-7.8906,8.7152,12.548
32.2000,4.3911,-8.0512,7.0818,11.587
32.2210,4.3973,-8.2766,3.2874,9.932
32.2260,2.4201,-7.9038,-2.1203,8.534
32.2290,0.3658,-6.8723,-4.4513,8.196
32.2990,-0.3081,-5.3161,-3.1619,6.193
32.3000,0.7507,-3.5829,-0.7829,3.744
32.3010,3.3771,-1.1851,1.8048,4.008
32.3020,5.6752,0.9707,3.5174,6.747
32.3020,6.6508,2.7335,5.1107,8.822
32.3030,5.7182,3.5716,6.5800,9.421
32.3040,3.7305,4.0073,6.8254,8.750
32.3600,2.2464,4.3428,6.2947,7.970
32.3660,1.2740,4.7586,5.7738,7.590
32.3690,0.9468,5.1448,5.4466,7.552
32.3720,1.2376,5.5979,5.3805,7.862
32.3760,1.5148,5.8559,5.4949,8.172
32.3790,2.2810,6.2661,6.1819,9.093
32.3820,2.9600,6.6176,6.7980,9.938
32.3860,3.2459,7.0408,7.4183,10.730
32.3980,3.4411,7.5763,7.9240,11.491
32.4010,3.4837,7.9987,8.1008,11.905
32.4500,3.2307,8.2979,8.0001,11.971
32.4530,2.4524,8.0516,7.7894,11.468
32.4550,1.6941,7.4186,7.7062,10.830
32.4570,1.8675,7.1776,7.3272,10.426
32.4600,2.7329,7.6129,5.8905,10.006
32.4610,3.1127,7.9522,4.5747,9.688
32.4730,2.9462,7.9001,2.9943,8.947
32.4830,1.5637,7.1209,0.9503,7.352
32.5400,-1.4818,4.9277,-2.9587,5.936
32.5410,-3.9858,2.5919,-7.3114,8.721
32.5420,-4.4461,0.0261,-11.5093,12.338
32.5430,-4.5649,-3.3457,-17.6529,18.538
32.5440,-4.8449,-7.2961,-10.7893,13.897
32.5450,-5.0311,-10.2195,-6.2942,13.014
32.5520,-4.5652,-11.9362,-8.1509,15.158
32.5580,-2.8726,-12.4023,-12.1012,17.564
32.6320,2.3358,-11.1690,-2.4319,11.667
32.6340,9.8232,-11.5131,9.0166,17.617
32.6350,10.8606,-17.3968,-3.0268,20.731
32.6360,6.1422,-16.5825,0.0694,17.684
32.6380,3.8551,-10.2966,10.0840,14.919
32.6390,2.5275,-4.6954,9.6149,10.995
32.6400,4.1116,1.3134,5.7152,7.162
32.6410,6.1328,4.2652,6.3788,9.823
32.6950,6.6055,5.1407,8.9214,12.233
32.6990,6.2321,5.8282,7.8755,11.612
32.7010,4.8608,6.1424,6.0469,9.895
32.7040,2.9715,5.8662,4.5731,8.010
32.7050,1.5886,5.3986,4.7060,7.336
32.7080,1.2225,4.5727,5.6092,7.339
32.7470,2.5378,3.5669,4.3984,6.206
32.7500,3.1492,2.3815,3.8477,5.513
32.7520,3.4596,0.7713,2.7848,4.508
32.7540,2.7600,-1.1969,2.0226,3.625
32.7560,1.3767,-2.6938,2.8233,4.138
32.7600,0.0567,-3.4100,3.8921,5.175
32.8070,-0.7242,-3.0770,3.7137,4.877
32.8130,-1.7265,-0.4012,6.9307,7.154
32.8150,-3.0476,0.3016,-0.7960,3.164
32.8180,-5.0373,-0.5593,-8.0272,9.493
32.8210,-6.4383,-1.2504,-8.9029,11.058
32.8230,-6.7586,-1.4558,-5.7453,8.989
32.8380,-6.2090,-0.9081,-2.4921,6.752
32.8420,-5.2588,-0.0207,-0.6288,5.296
32.8940,-4.4009,0.9164,-0.4257,4.515
32.8970,-3.2504,1.9237,-0.8455,3.871
32.8990,-2.1339,2.6454,-0.8113,3.494
32.9010,-0.6439,3.5029,-0.2617,3.571
32.9030,1.1489,3.8220,0.1951,3.996
32.9190,3.7500,3.2518,-0.9092,5.046
32.9220,6.0738,1.8721,-3.9189,7.467
32.9260,6.2360,-0.2878,-6.3484,8.904
32.9290,3.1908,-2.5557,-7.4832,8.527
32.9400,-0.2430,-3.6143,-7.1250,7.993
32.9490,-2.4725,-3.9030,-5.7589,7.383
32.9580,-4.0576,-3.5550,-5.2278,7.512
33.0090,-4.5775,-2.3995,-5.8437,7.801
33.0100,-4.6375,-1.5484,-6.2902,7.967
33.0100,-4.6826,-1.6445,-5.5462,7.443
33.0110,-5.0313,-2.5872,-4.7276,7.373
33.0110,-5.7401,-3.7072,-4.0427,7.940
33.0200,-6.7457,-4.4148,-3.9038,8.957
33.0420,-7.7657,-4.5792,-4.2247,9.956
33.0470,-8.5293,-4.2193,-5.0757,10.785
33.0500,-9.3615,-3.6929,-7.0202,12.270
33.0980,-10.4761,-4.1446,-8.7153,14.244
33.1040,-12.4640,-6.8254,-7.1327,15.900
33.1070,-13.0740,-9.4182,-1.2921,16.165
33.1140,-11.5228,-10.2801,3.2594,15.782
33.1180,-9.1817,-9.8477,2.6376,13.720
33.1210,-8.9966,-9.7666,2.9649,13.606
33.1240,-0.1743,-5.9227,-9.0977,10.857
33.1330,4.1633,-5.2515,-5.9183,8.941
33.1390,5.3650,-5.7659,1.0134,7.941
33.1530,4.0485,-6.9864,6.5494,10.397
33.1580,2.6812,-7.5461,8.1702,11.440
33.2220,2.4268,-8.0284,8.7244,12.102
33.2230,3.1462,-8.1206,9.3056,12.745
33.2240,4.1946,-7.9746,10.1620,13.581
33.2250,5.1259,-7.7739,9.3872,13.222
33.2250,3.1100,-7.5361,2.6837,8.583
33.2260,-0.6309,-6.5970,-3.8900,7.685
33.2310,-1.2257,-5.2824,-6.5183,8.479
33.2390,-0.2288,-3.6874,-3.9190,5.386
33.2620,2.0776,-1.7937,0.0355,2.745
33.2650,5.5432,0.5975,3.7349,6.711
33.2690,7.3985,2.1635,5.3864,9.404
33.3300,7.1462,3.2295,5.8606,9.790
33.3340,5.8373,3.6622,5.9491,9.104
33.3360,4.1051,4.0535,5.4657,7.947
33.3390,2.7910,4.5062,5.3067,7.500
33.3400,1.6960,4.8261,5.6740,7.639
33.3420,1.8827,5.3331,5.7586,8.071
33.3440,2.5900,5.8951,5.9259,8.751
33.3490,2.4605,6.1554,5.9623,8.916
33.3580,2.6459,6.6155,5.9682,9.294
33.3700,3.2328,6.9556,6.4603,10.028
33.3830,3.7711,7.4002,7.1269,10.944
33.4300,3.8297,7.6184,7.8925,11.619
33.4310,3.4919,7.6060,7.8385,11.467
33.4320,2.5031,7.0931,7.3886,10.544
33.4330,1.5511,6.4336,7.6117,10.086
33.4340,1.4025,6.1725,7.5864,9.880
33.4380,2.2661,6.7398,6.0894,9.362
33.4510,3.1098,7.5423,4.3505,9.246
33.4590,2.7532,7.8307,3.0564,8.845
33.4760,1.2243,7.3849,1.6508,7.666
33.4800,-1.7510,5.9824,-1.3440,6.377
33.5330,-5.1400,3.5072,-6.2084,8.790
33.5380,-6.5379,1.6422,-10.5134,12.489
33.5430,-7.8663,-1.9436,-15.7903,17.748
33.5480,-8.2456,-5.6598,-11.5150,15.252
33.5520,-7.4002,-10.0367,-7.5849,14.596
33.5560,-6.1620,-13.9832,-9.7461,18.124
33.5600,-5.4923,-17.1667,-10.3099,20.764
33.5650,1.6380,-16.5350,2.9776,16.881
33.5810,10.0034,-19.1755,-3.1103,21.850
33.5860,8.5551,-19.5348,-1.4339,21.374
33.6510,5.5061,-12.4558,13.4168,19.117
33.6530,4.6276,-5.8005,15.4502,17.140
33.6540,3.6649,-0.4405,11.2284,11.820
33.6540,4.0642,3.2139,6.6875,8.460
33.6550,4.2642,5.5036,6.0428,9.219
33.6560,3.8841,6.3363,6.5383,9.899
33.6560,3.4241,7.0745,5.1411,9.392
33.6580,2.5789,7.3035,3.8124,8.633
33.7070,1.9059,7.0803,3.3714,8.070
33.7110,2.4468,6.5825,3.6936,7.935
33.7150,3.6341,5.4488,4.0995,7.727
33.7180,4.8678,4.3314,2.9640,7.158
33.7200,5.7235,2.7381,2.1820,6.709
33.7230,5.7062,1.0680,1.6229,6.028
33.7560,4.4774,-1.0941,2.0013,5.025
33.7600,2.7781,-2.7431,3.6305,5.331
33.7640,1.0769,-3.8675,4.8744,6.315
33.7660,-0.3241,-3.7213,6.6851,7.658
33.8060,-1.3262,-2.2000,6.2768,6.782
33.8090,-2.8312,-2.0098,-0.4954,3.507
33.8120,-4.7693,-2.1724,-6.9115,8.674
33.8140,-6.2223,-2.1183,-8.4697,10.721
33.8160,-6.3229,-1.5497,-6.9858,9.549
33.8180,-5.8523,-0.3279,-3.9019,7.041
33.9000,-5.0817,0.7051,-2.5675,5.737
33.9010,-4.0545,1.8413,-2.1222,4.933
33.9020,-3.1718,2.5537,-1.6224,4.383
33.9030,-2.2624,3.1055,-0.6480,3.896
33.9040,-1.3019,3.4541,0.4089,3.714
33.9040,0.1214,3.5733,1.3948,3.838
33.9050,1.5198,3.1572,1.8566,3.965
33.9420,3.2313,1.9329,1.0989,3.922
33.9460,3.7735,0.3751,-0.5867,3.837
33.9470,1.9791,-1.6318,-3.7533,4.546
33.9480,-0.0449,-2.8746,-6.3965,7.013
33.9480,-1.7732,-3.3120,-7.6031,8.481
33.9490,-2.9721,-3.2244,-7.9077,9.042
33.9830,-3.7548,-2.6343,-7.6998,8.962
33.9830,-3.6313,-1.8868,-6.7260,7.873
33.9840,-3.3269,-1.6112,-5.1086,6.306
33.9880,-3.4705,-2.2057,-4.0611,5.779
34.0000,-4.2756,-3.2865,-3.6619,6.519
34.0090,-5.2800,-4.1021,-3.7575,7.670
34.0810,-6.2945,-4.4917,-4.4939,8.944
34.0810,-6.8865,-4.0243,-5.7534,9.835
34.0820,-7.5059,-3.2872,-7.4270,11.059
34.0830,-8.6248,-3.9190,-7.9546,12.370
34.0830,-10.9289,-6.4858,-5.9646,14.039
34.0840,-10.9355,-6.4618,-5.8348,13.978
34.0850,-11.5034,-9.4022,2.8136,15.121
34.0890,-10.3155,-9.5406,2.7929,14.326
34.1060,-8.5557,-8.6450,-2.3676,12.391
34.1100,-2.3999,-6.2851,-13.6691,15.235
34.1730,3.7657,-5.6728,-12.4172,14.162
34.1760,4.0419,-5.6284,-12.1311,13.971
34.1780,6.9792,-7.2817,8.1042,12.939
34.1810,4.9706,-8.1576,12.0142,15.349
34.1830,2.2930,-8.7572,12.1837,15.179
34.1860,1.0032,-8.7701,11.9297,14.840
34.1890,1.9998,-8.4559,10.6154,13.718
34.1920,4.2227,-8.2645,3.7054,9.993
34.2200,2.7327,-8.5230,-5.5064,10.509
34.2210,-2.1410,-8.5263,-8.1189,11.967
34.2220,-3.1139,-7.5865,-3.2072,8.806
34.2690,0.7354,-4.4197,1.8202,4.836
34.2700,4.9098,-0.9621,3.1096,5.891
34.2710,7.3270,1.9663,4.2174,8.680
34.2710,7.5392,3.6626,5.0301,9.775
34.2720,5.9735,4.7594,5.7181,9.541
34.2790,4.0781,5.1851,6.6242,9.349
34.2920,2.1669,5.2974,7.0102,9.050
34.3410,0.9525,5.1891,7.1399,8.878
34.3470,0.2346,5.2777,6.8346,8.638
34.3510,0.5271,5.5343,6.6852,8.695
34.3530,1.3001,5.7118,6.8254,8.995
34.3550,1.6369,5.8484,6.7889,9.109
34.3580,1.8042,6.1695,6.6949,9.281
34.3610,2.5504,6.3846,7.2486,9.990
34.3780,2.9343,6.5486,8.4556,11.090
34.3820,2.8430,6.7709,9.5119,12.017
34.4290,2.4769,6.9669,9.3404,11.913
34.4340,1.8201,6.8430,7.9749,10.665
34.4360,1.7633,6.7736,7.8269,10.500
34.4390,2.7133,7.2544,7.5179,10.794
34.4410,3.3633,7.8991,6.5775,10.815
34.4440,3.3072,8.3674,5.3530,10.469
34.4500,1.8653,8.0772,4.0752,9.237
34.4590,-0.6787,6.8836,0.9684,6.984
34.4700,-3.5220,4.9851,-3.4790,7.026
34.4780,-6.0402,2.4665,-9.7059,11.695
34.5310,-6.4788,-0.1734,-16.4531,17.684
34.5320,-6.3744,-4.2580,-17.0386,18.684
34.5330,-5.8912,-7.8209,-7.4637,12.312
34.5340,-5.4735,-11.1111,-2.5199,12.640
34.5350,-4.7825,-11.9577,-4.6095,13.679
34.5380,-3.7839,-10.7131,-7.9369,13.859
34.5640,0.3529,-8.5333,-0.4720,8.554
34.5680,8.3482,-7.9191,12.6062,17.068
34.5720,9.5154,-14.3129,-3.3806,17.517
34.6660,3.6168,-16.7341,-5.9018,18.109
34.6700,2.1902,-12.7895,6.2273,14.393
34.6730,1.4051,-6.9712,11.5012,13.522
34.6750,1.9952,-1.9362,9.4932,9.892
34.6760,5.2978,2.6407,6.6088,8.872
34.6780,6.5390,4.1190,7.9536,11.090
34.6810,6.3913,5.0474,7.9665,11.393
34.6830,5.5108,5.9167,6.1628,10.166
34.6850,4.0329,6.1092,4.0493,8.366
34.6880,2.4377,6.0212,2.6424,7.013
34.6900,1.3187,5.5653,2.4630,6.227
34.6920,1.6934,4.1957,2.4500,5.145
34.7230,2.8226,3.1045,2.7531,5.018
34.7230,3.7877,1.6617,2.8957,5.049
34.7240,3.7391,0.1233,3.2575,4.961
34.7800,2.7425,-1.6773,4.0789,5.194
34.7800,1.4892,-2.7860,4.9761,5.894
34.7810,0.3560,-2.9410,5.8770,6.581
34.7820,-0.1239,-1.5793,6.9294,7.108
34.7820,-1.0549,-0.6370,1.6662,2.072
34.7830,-2.4313,-0.6766,-4.3496,5.029
34.7900,-4.1345,-0.9289,-8.4632,9.465
34.8320,-5.2782,-1.1917,-8.4707,10.051
34.8360,-5.6552,-1.0180,-5.3745,7.868
34.8390,-5.4278,-0.5371,-2.3460,5.937
34.8420,-5.4389,-0.5588,-2.4811,6.004
34.8450,-3.7699,1.0728,-0.9641,4.036
34.8830,-2.7141,2.0541,-0.6646,3.468
34.8870,-1.6670,2.9236,0.0638,3.366
34.8900,-1.6477,2.9115,-0.0093,3.345
34.8920,1.4271,4.3815,2.1160,5.071
34.8950,3.3791,3.7941,1.5673,5.317
34.9110,4.9124,2.4950,-0.5052,5.533
34.9140,3.9846,0.0415,-4.2097,5.797
34.9240,1.2596,-2.1487,-7.2662,7.681
34.9290,-1.4907,-3.5670,-8.3519,9.203
34.9900,-3.3863,-4.0362,-7.7531,9.374
34.9910,-4.8111,-3.9700,-6.9403,9.331
34.9910,-5.6975,-3.2708,-6.3441,9.133
34.9920,-5.9893,-2.5647,-6.0040,8.860
34.9930,-5.6303,-2.3777,-5.6904,8.351
34.9930,-4.9476,-2.7082,-5.6163,7.960
35.0100,-5.0124,-2.7146,-5.5895,7.983
35.0150,-4.6015,-3.9128,-6.4561,8.841
35.0640,-5.5161,-4.3436,-6.9113,9.852
35.0690,-6.7171,-4.4020,-7.4542,10.957
35.0720,-8.3603,-5.0119,-7.8857,12.538
35.0750,-10.1997,-7.0452,-6.7795,14.129
35.0790,-11.7338,-9.3165,-2.2336,15.148
35.0830,-11.2759,-9.9303,2.1295,15.175
35.0870,-10.5166,-10.8601,3.0286,15.418
35.0910,-9.0160,-10.4868,-2.1020,13.989
35.1130,-3.1119,-7.8108,-11.3543,14.128
35.1170,2.5981,-6.6218,-9.3033,11.711
35.1200,5.8524,-6.5215,2.3146,9.063
35.1780,6.2002,-6.9223,8.8814,12.855
35.1790,4.7672,-7.4929,11.8654,14.821
35.1790,2.6274,-7.7356,12.0927,14.594
35.1800,2.1134,-7.5252,10.8489,13.371
35.1810,3.2575,-7.1384,8.5378,11.596
35.1820,3.9909,-7.4398,1.6158,8.596
35.2340,1.4926,-8.2422,-5.6430,10.100
35.2360,-2.7257,-8.3893,-6.8655,11.178
35.2360,-3.0262,-7.2047,-2.1707,8.110
35.2370,0.5412,-4.4389,2.0818,4.933
35.2380,4.8621,-0.6333,3.2372,5.875
35.2390,6.8149,1.7509,4.5246,8.365
35.2960,6.7613,3.4706,5.7612,9.537
35.3020,5.5794,4.4136,6.1776,9.422
35.3050,3.8260,5.1043,6.4515,9.073
35.3070,1.8260,5.2595,7.1643,9.073
35.3100,0.3077,5.3649,7.5889,9.299
35.3120,0.0174,5.6604,7.3756,9.297
35.3150,0.1802,5.8349,6.4336,8.687
35.3190,0.9499,6.0745,5.9015,8.522
35.3300,1.9423,6.4274,5.8075,8.878
35.3880,2.2919,6.5587,6.1706,9.292
35.3890,2.6816,6.4191,7.1138,9.950
35.3900,3.1255,6.3389,8.1884,10.817
35.3910,3.2517,6.4016,9.2014,11.671
35.3920,3.1836,6.5109,9.0089,11.562
35.3920,2.6033,6.5396,8.0095,10.663
35.4550,2.5967,6.9398,7.4454,10.504
35.4610,2.8940,7.7180,6.7496,10.654
35.4670,2.9627,8.3440,5.9496,10.668
35.4720,2.4489,8.8711,4.7518,10.357
35.4760,1.1355,8.7089,3.4962,9.453
35.4790,-1.3274,7.5638,0.2735,7.684
35.4830,-1.4264,7.6444,0.1410,7.778
35.4850,-6.7188,2.6210,-11.0756,13.217
35.4880,-6.2628,-0.4204,-14.7038,15.987
35.4920,-4.9464,-4.5018,-13.8972,15.423
35.5010,-3.7549,-8.2668,-6.9598,11.440
35.5100,-2.9723,-10.4120,-3.5820,11.405
35.5270,-2.0094,-10.5478,-5.7021,12.158
35.5310,-2.0083,-8.9937,-8.4364,12.494
